row_id,block,trial,ori_left,ori_right,coherence_left,coherence_right,correct_response,condition,key_resp,key_resp.rt,stim_onset_time,stim_offset_time
0,0,0,90,270,0.9,0.2,left,1,['left'],[0.4242129996418953],499.56513339839876,499.8152755983174
1,0,1,90,270,0.5,0.4,left,1,['left'],[0.8027286008000374],500.8744439985603,501.1153368987143
2,0,2,270,270,0.9,0.2,no_target,1,[],[],502.17566369846463,502.41536989994347
3,0,3,270,90,0.9,0.2,right,1,['right'],[0.7513634990900755],503.47362300008535,503.71483399905264
4,0,4,90,270,0.4,0.5,left,1,['left'],[0.4940921999514103],504.77498259954154,505.01538239978254
5,0,5,270,270,0.9,0.2,no_target,1,['left'],[0.5318825002759695],506.0734862983227,506.3154288996011
6,0,6,270,90,0.4,0.5,right,1,['right'],[0.5236908998340368],507.37439019978046,507.61493009887636
7,0,7,270,90,0.5,0.5,right,1,[],[],508.6716280989349,508.9153420999646
8,0,8,270,270,0.9,0.2,no_target,1,[],[],509.97332930006087,510.21540659852326
9,0,9,270,90,0.4,0.5,right,1,[],[],511.2719449996948,511.5154311992228
10,0,10,90,270,0.9,0.2,left,1,['left'],[0.48048190027475357],512.572691898793,512.8153359983116
11,0,11,270,270,0.5,0.4,no_target,1,[],[],513.8728930000216,514.1154091991484
12,0,12,270,270,0.5,0.5,no_target,1,[],[],515.1727426983416,515.4152640998363
13,0,13,90,270,0.9,0.2,left,1,['left'],[0.5727011989802122],516.4724832996726,516.715453999117
14,0,14,270,270,0.9,0.2,no_target,1,[],[],517.7737231999636,518.0152453985065
15,0,15,270,270,0.9,0.2,no_target,1,[],[],519.0677669998258,519.3153418991715
16,0,16,270,270,0.9,0.2,no_target,1,[],[],520.3741508983076,520.6153247989714
17,0,17,270,90,0.4,0.5,right,1,['right'],[0.4869756009429693],521.6731607988477,521.9151275996119
18,0,18,270,270,0.4,0.4,no_target,1,[],[],522.9669399987906,523.2150662988424
19,0,19,270,270,0.4,0.5,no_target,1,[],[],524.269280700013,524.5153968986124
20,0,20,90,270,0.4,0.4,left,1,['left'],[1.0317885000258684],525.5732885990292,525.8149275984615
21,0,21,90,270,0.4,0.4,left,1,[],[],526.8740273993462,527.115327199921
22,0,22,90,270,0.4,0.4,left,1,['left'],[0.5987732000648975],528.1746364999563,528.414920900017
23,0,23,90,270,0.5,0.4,left,1,[],[],529.4746981989592,529.7146125994623
24,0,24,270,270,0.5,0.4,no_target,1,[],[],530.7731930986047,531.0153557993472
25,0,25,90,270,0.4,0.4,left,1,['left'],[0.41104229912161827],532.074217999354,532.3151691984385
26,0,26,270,90,0.9,0.2,right,1,[],[],533.3706626985222,533.615341199562
27,0,27,270,90,0.4,0.4,right,1,[],[],534.6746066994965,534.9153879992664
28,0,28,90,270,0.5,0.5,left,1,['left'],[0.7479065004736185],535.9692249000072,536.2154141999781
29,0,29,270,270,0.4,0.5,no_target,1,[],[],537.2739005982876,537.5153067987412
30,0,30,270,90,0.9,0.2,right,1,['left'],[0.616364499554038],538.573104199022,538.8145949989557
31,0,31,270,90,0.9,0.2,right,1,[],[],539.8734778985381,540.1151640992612
32,0,32,90,270,0.9,0.2,left,1,[],[],541.1743657998741,541.4153557997197
33,0,33,270,90,0.5,0.5,right,1,['right'],[0.37996720150113106],542.4732865989208,542.7153788991272
34,0,34,270,90,0.9,0.2,right,1,[],[],543.7742878999561,544.0152824986726
35,0,35,270,270,0.9,0.2,no_target,1,[],[],545.0672442987561,545.3151356000453
36,0,36,270,270,0.9,0.2,no_target,1,[],[],546.3745061997324,546.6153559982777
37,0,37,270,90,0.9,0.2,right,1,[],[],547.6740149985999,547.9149607997388
38,0,38,270,270,0.4,0.4,no_target,1,[],[],548.9745060000569,549.2154117990285
39,0,39,90,270,0.9,0.2,left,1,[],[],550.2741457000375,550.5155304986984
40,0,40,270,270,0.9,0.2,no_target,1,[],[],551.5735048986971,551.8153852000833
41,0,41,90,270,0.4,0.5,left,1,['right'],[0.38810830004513264],552.8729289993644,553.1153533998877
42,0,42,270,90,0.5,0.5,right,1,['right'],[0.38848650082945824],554.1694617997855,554.4153524991125
43,0,43,270,270,0.5,0.5,no_target,1,[],[],555.4704887997359,555.714870499447
44,0,44,270,90,0.9,0.2,right,1,[],[],556.7716410998255,557.0146038997918
45,0,45,90,270,0.4,0.5,left,1,['left'],[0.3402644991874695],558.0731018986553,558.3153792992234
46,0,46,270,270,0.9,0.2,no_target,1,[],[],559.3745242990553,559.6154488995671
47,0,47,270,90,0.9,0.2,right,1,[],[],560.6731578987092,560.9154424984008
48,0,48,270,270,0.9,0.2,no_target,1,[],[],561.9727266989648,562.2149815987796
49,0,49,270,90,0.4,0.4,right,1,['right'],[0.9079331010580063],563.2735965996981,563.5154008995742
50,0,50,270,90,0.4,0.4,right,1,[],[],564.573192698881,564.8154968991876
51,0,51,90,270,0.9,0.2,left,1,['left'],[0.5981523003429174],565.8709113989025,566.115409899503
52,0,52,270,90,0.5,0.4,right,1,[],[],567.1744812000543,567.4153898991644
53,0,53,270,270,0.5,0.4,no_target,1,[],[],568.4731887988746,568.7153998985887
54,0,54,270,270,0.5,0.5,no_target,1,[],[],569.7748213987797,570.0154002998024
55,0,55,90,270,0.5,0.5,left,1,['left'],[0.49086529947817326],571.0742327999324,571.315413698554
56,0,56,270,270,0.4,0.5,no_target,1,[],[],572.3726488985121,572.6153911985457
57,0,57,90,270,0.9,0.2,left,1,['left'],[0.509765200316906],573.6717506982386,573.9153882991523
58,0,58,90,270,0.4,0.5,left,1,[],[],574.9676762986928,575.2154395990074
59,0,59,270,90,0.5,0.4,right,1,['right'],[0.5634510014206171],576.2732081990689,576.5153473988175
60,0,60,90,270,0.9,0.2,left,1,[],[],577.5742779988796,577.8153610993177
61,0,61,90,270,0.9,0.2,left,1,['left'],[0.7740046009421349],578.871338898316,579.1151658985764
62,0,62,270,270,0.5,0.4,no_target,1,[],[],580.1733245998621,580.4153087995946
63,0,63,270,270,0.5,0.5,no_target,1,[],[],581.4699044991285,581.7150446996093
64,0,64,270,90,0.4,0.5,right,1,['right'],[0.5081993993371725],582.7737712990493,583.0151813998818
65,0,65,270,270,0.5,0.4,no_target,1,[],[],584.0746019985527,584.315366499126
66,0,66,270,90,0.4,0.5,right,1,['right'],[0.55947570130229],585.3737249989063,585.6153988987207
67,0,67,90,270,0.4,0.4,left,1,[],[],586.6732067987323,586.9154172986746
68,0,68,90,270,0.9,0.2,left,1,['left'],[0.3830827008932829],587.974197499454,588.2152894996107
69,0,69,270,90,0.9,0.2,right,1,[],[],589.2711103986949,589.5153671987355
70,0,70,90,270,0.9,0.2,left,1,['left'],[0.5384037997573614],590.5710117984563,590.8153514992446
71,0,71,90,270,0.5,0.4,left,1,[],[],591.8681584000587,592.1152061000466
72,0,72,90,270,0.5,0.4,left,1,['left'],[0.48681579902768135],593.1745219994336,593.4153952989727
73,0,73,270,90,0.9,0.2,right,1,[],[],594.4735030997545,594.714642599225
74,0,74,90,270,0.4,0.5,left,1,['left'],[0.5583250001072884],595.7748569995165,596.0155387986451
75,0,75,270,90,0.4,0.4,right,1,[],[],597.0726186987013,597.3152922987938
76,0,76,270,270,0.4,0.4,no_target,1,[],[],598.3720132000744,598.6153790988028
77,0,77,270,90,0.9,0.2,right,1,[],[],599.6728315986693,599.9154480993748
78,0,78,270,90,0.5,0.5,right,1,['right'],[0.5516164004802704],600.9728849995881,601.2153605986387
79,0,79,270,270,0.4,0.5,no_target,1,[],[],602.2731069996953,602.5153820998967
80,0,80,270,270,0.9,0.2,no_target,1,[],[],603.5741824992001,603.8153062984347
81,0,81,270,90,0.5,0.4,right,1,[],[],604.8681204989552,605.1153375990689
82,0,82,90,270,0.9,0.2,left,1,['left'],[0.4112672992050648],606.1701676994562,606.4153332989663
83,0,83,270,90,0.5,0.4,right,1,[],[],607.4729992989451,607.7155812997371
84,0,84,270,90,0.9,0.2,right,1,['right'],[0.4641392007470131],608.7733471989632,609.0153310000896
85,0,85,90,270,0.5,0.5,left,1,['left'],[0.5323226004838943],610.0729775000364,610.3151706997305
86,0,86,90,270,0.5,0.5,left,1,['left'],[0.628192100673914],611.3690977990627,611.6153465993702
87,0,87,270,270,0.4,0.4,no_target,1,[],[],612.6727206986398,612.9150103982538
88,0,88,270,270,0.9,0.2,no_target,1,[],[],613.9728948995471,614.2147713992745
89,0,89,270,270,0.5,0.5,no_target,1,[],[],615.272387098521,615.515356099233
90,0,90,90,270,0.5,0.5,left,1,['left'],[0.6017950996756554],616.571560498327,616.8153579998761
91,0,91,90,270,0.5,0.4,left,1,[],[],617.8668207991868,618.1149780992419
92,0,92,270,90,0.4,0.4,right,1,['right'],[0.5356936007738113],619.172658899799,619.4153422992676
93,0,93,270,90,0.5,0.4,right,1,[],[],620.4722083993256,620.7153797000647
94,0,94,270,270,0.4,0.5,no_target,1,[],[],621.7675225995481,622.0154324993491
95,0,95,270,90,0.9,0.2,right,1,['left'],[0.4727145005017519],623.0685853995383,623.3153913989663
96,0,96,270,270,0.4,0.4,no_target,1,[],[],624.3721477985382,624.6153296995908
97,0,97,90,270,0.9,0.2,left,1,['left'],[0.8823693003505468],625.6673347987235,625.9153876993805
98,0,98,270,90,0.5,0.5,right,1,[],[],626.9732251986861,627.2147338986397
0,1,0,90,270,0.9,0.2,left,1,['left'],[0.47219360060989857],646.9487720988691,647.1986810993403
1,1,1,270,270,0.9,0.2,no_target,1,[],[],648.2542073987424,648.4987209998071
2,1,2,90,270,0.5,0.5,left,1,[],[],649.5560104995966,649.7987528983504
3,1,3,270,270,0.9,0.2,no_target,1,[],[],650.8581350985914,651.0986559987068
4,1,4,270,270,0.9,0.2,no_target,1,[],[],652.1571491993964,652.398636398837
5,1,5,90,270,0.5,0.5,left,1,['left'],[0.5578071009367704],653.4555130992085,653.6986031997949
6,1,6,270,90,0.9,0.2,right,1,[],[],654.7579442989081,654.998643098399
7,1,7,270,270,0.4,0.4,no_target,1,[],[],656.057564098388,656.2986361999065
8,1,8,270,270,0.9,0.2,no_target,1,[],[],657.3579458985478,657.5984015986323
9,1,9,90,270,0.9,0.2,left,1,['left'],[0.4618774000555277],658.6550373993814,658.8985549993813
10,1,10,270,90,0.5,0.5,right,1,['right'],[0.7527147997170687],659.956128699705,660.1985834985971
11,1,11,270,270,0.4,0.4,no_target,1,[],[],661.2581297997385,661.4987144991755
12,1,12,270,90,0.4,0.4,right,1,['right'],[0.497146999463439],662.5563075989485,662.7986015994102
13,1,13,90,270,0.4,0.4,left,1,[],[],663.8563247993588,664.0986897982657
14,1,14,90,270,0.9,0.2,left,1,[],[],665.1528602000326,665.3986534997821
15,1,15,90,270,0.9,0.2,left,1,[],[],666.4549797996879,666.6986565999687
16,1,16,90,270,0.4,0.4,left,1,[],[],667.751422598958,667.9986706990749
17,1,17,90,270,0.9,0.2,left,1,[],[],669.0559020992368,669.2987283989787
18,1,18,270,90,0.9,0.2,right,1,[],[],670.3506675995886,670.5987177994102
19,1,19,90,270,0.9,0.2,left,1,[],[],671.6549969986081,671.8984831999987
20,1,20,90,270,0.9,0.2,left,1,['left'],[0.15278550051152706],672.9565407987684,673.1986250989139
21,1,21,90,270,0.4,0.5,left,1,[],[],674.2574975993484,674.4986109994352
22,1,22,270,90,0.4,0.5,right,1,['right'],[0.47314560040831566],675.5554332993925,675.7986726984382
23,1,23,90,270,0.9,0.2,left,1,[],[],676.8499435000122,677.0986880995333
24,1,24,270,270,0.9,0.2,no_target,1,[],[],678.1563470996916,678.3986464999616
25,1,25,270,90,0.5,0.5,right,1,['right'],[0.4657591003924608],679.4555580988526,679.6986802984029
26,1,26,90,270,0.9,0.2,left,1,['left'],[0.5188726987689734],680.7580062989146,680.9986776988953
27,1,27,90,270,0.5,0.5,left,1,[],[],682.0544796995819,682.2983823996037
28,1,28,270,270,0.5,0.4,no_target,1,[],[],683.356355600059,683.5986146982759
29,1,29,270,90,0.5,0.4,right,1,['right'],[0.6057802010327578],684.6561508998275,684.8986759986728
30,1,30,270,90,0.9,0.2,right,1,[],[],685.9558982998133,686.1986097991467
31,1,31,270,90,0.4,0.5,right,1,[],[],687.2514564990997,687.4987341985106
32,1,32,270,90,0.4,0.5,right,1,[],[],688.5560527984053,688.7986913993955
33,1,33,270,90,0.9,0.2,right,1,[],[],689.856346199289,690.0980873983353
34,1,34,90,270,0.4,0.5,left,1,['left'],[0.11319599859416485],691.1559765990824,691.3982489984483
35,1,35,270,270,0.4,0.5,no_target,1,[],[],692.4575555995107,692.6986811999232
36,1,36,270,270,0.9,0.2,no_target,1,[],[],693.7582957986742,693.9985660985112
37,1,37,90,270,0.5,0.5,left,1,[],[],695.0539758000523,695.2986963000149
38,1,38,90,270,0.5,0.4,left,1,['left'],[0.6657242998480797],696.3555359989405,696.5986576993018
39,1,39,90,270,0.9,0.2,left,1,[],[],697.6547483988106,697.8986996989697
40,1,40,90,270,0.5,0.4,left,1,['left'],[0.6335955988615751],698.9556388985366,699.1986972987652
41,1,41,270,90,0.4,0.5,right,1,['right'],[0.461074398830533],700.2524476982653,700.4986715000123
42,1,42,270,270,0.5,0.4,no_target,1,[],[],701.5549115985632,701.7986637987196
43,1,43,270,90,0.4,0.4,right,1,[],[],702.856347899884,703.0986564997584
44,1,44,90,270,0.9,0.2,left,1,['left'],[0.5744150001555681],704.1506573986262,704.398736698553
45,1,45,270,270,0.4,0.5,no_target,1,[],[],705.4566861987114,705.6986615993083
46,1,46,270,270,0.4,0.4,no_target,1,[],[],706.7561793997884,706.9986899998039
47,1,47,270,270,0.9,0.2,no_target,1,[],[],708.0576887987554,708.2983279991895
48,1,48,90,270,0.5,0.4,left,1,['left'],[0.6495121996849775],709.3558111991733,709.598649898544
49,1,49,270,270,0.5,0.4,no_target,1,[],[],710.6548057999462,710.8982109986246
50,1,50,270,270,0.9,0.2,no_target,1,[],[],711.959230300039,712.1986569985747
51,1,51,90,270,0.4,0.5,left,1,['left'],[0.4703067000955343],713.2550129983574,713.4987030997872
52,1,52,270,270,0.4,0.5,no_target,1,[],[],714.5553421992809,714.7987193986773
53,1,53,270,270,0.5,0.4,no_target,1,[],[],715.8557751998305,716.0982903987169
54,1,54,270,270,0.9,0.2,no_target,1,['right'],[0.6568636000156403],717.1563682984561,717.3983593992889
55,1,55,270,270,0.5,0.5,no_target,1,[],[],718.4501949995756,718.6986576989293
56,1,56,270,90,0.5,0.5,right,1,['right'],[0.13693850114941597],719.7540472000837,719.9986374992877
57,1,57,90,270,0.5,0.4,left,1,['left'],[0.5796782001852989],721.0573741998523,721.298476099968
58,1,58,270,270,0.9,0.2,no_target,1,['right'],[0.5872613005340099],722.3540925998241,722.5986798983067
59,1,59,270,90,0.5,0.4,right,1,['right'],[0.5866350997239351],723.6569952983409,723.8986364994198
60,1,60,90,270,0.9,0.2,left,1,['left'],[0.7373659014701843],724.9559967983514,725.1986039988697
61,1,61,270,90,0.9,0.2,right,1,['right'],[0.6927080005407333],726.2501364983618,726.4986526984721
62,1,62,270,270,0.5,0.5,no_target,1,[],[],727.5530660990626,727.7986473999918
63,1,63,270,270,0.9,0.2,no_target,1,[],[],728.8565463982522,729.0984014999121
64,1,64,270,90,0.4,0.5,right,1,['right'],[0.9711141996085644],730.1573389992118,730.3986343983561
65,1,65,90,270,0.4,0.4,left,1,['left'],[0.48299230076372623],731.4583497997373,731.6986079998314
66,1,66,270,270,0.4,0.5,no_target,1,[],[],732.7594751995057,732.9986322987825
67,1,67,270,90,0.9,0.2,right,1,[],[],734.0560407992452,734.2986366990954
68,1,68,270,270,0.5,0.5,no_target,1,['right'],[0.35984230041503906],735.355387698859,735.5986336991191
69,1,69,270,90,0.4,0.4,right,1,[],[],736.6576878987253,736.8986470997334
70,1,70,270,90,0.5,0.5,right,1,[],[],737.9575846996158,738.1986237987876
71,1,71,270,90,0.4,0.4,right,1,['right'],[0.6018502991646528],739.2566216997802,739.498584298417
72,1,72,270,270,0.9,0.2,no_target,1,[],[],740.5563019998372,740.7986800987273
73,1,73,270,270,0.4,0.5,no_target,1,[],[],741.8570245988667,742.0986377988011
74,1,74,90,270,0.4,0.5,left,1,[],[],743.1568837985396,743.3981196992099
75,1,75,270,90,0.5,0.5,right,1,['right'],[0.49232270009815693],744.4574166983366,744.6987620983273
76,1,76,90,270,0.4,0.4,left,1,['left'],[0.6799324005842209],745.757066398859,745.9986026994884
77,1,77,270,270,0.4,0.4,no_target,1,[],[],747.0571818985045,747.2986167985946
78,1,78,90,270,0.5,0.5,left,1,"['right', 'left']","[0.8756355997174978, 0.7992364000529051]",748.3577810991555,748.5986228995025
79,1,79,270,270,0.5,0.4,no_target,1,[],[],749.6572396997362,749.8986871987581
80,1,80,270,270,0.4,0.4,no_target,1,[],[],750.955537898466,751.1982060987502
81,1,81,270,90,0.4,0.4,right,1,['right'],[0.37534330040216446],752.2572216000408,752.4983665999025
82,1,82,270,90,0.9,0.2,right,1,[],[],753.5580349992961,753.7980860993266
83,1,83,270,90,0.9,0.2,right,1,[],[],754.857320100069,755.098207199946
84,1,84,270,270,0.5,0.5,no_target,1,[],[],756.157399399206,756.3986446987838
85,1,85,270,90,0.9,0.2,right,1,['left'],[0.3653720002621412],757.4558800999075,757.6986075993627
86,1,86,270,90,0.9,0.2,right,1,[],[],758.7572707999498,758.9984725993127
87,1,87,270,90,0.5,0.4,right,1,[],[],760.0502719990909,760.2986574992537
88,1,88,90,270,0.9,0.2,left,1,['left'],[0.5557728987187147],761.3535164985806,761.5986140985042
89,1,89,270,90,0.9,0.2,right,1,[],[],762.6572918985039,762.8986606989056
90,1,90,270,90,0.5,0.4,right,1,[],[],763.9502592999488,764.198621198535
91,1,91,90,270,0.4,0.5,left,1,[],[],765.2570083998144,765.4986598994583
92,1,92,90,270,0.5,0.4,left,1,['right'],[0.603651000186801],766.5559942983091,766.7986439988017
93,1,93,90,270,0.4,0.4,left,1,[],[],767.8576279990375,768.098069800064
94,1,94,270,90,0.5,0.4,right,1,[],[],769.1525489985943,769.3986818995327
95,1,95,270,270,0.9,0.2,no_target,1,[],[],770.4562429990619,770.6981888990849
96,1,96,270,90,0.9,0.2,right,1,[],[],771.75793299824,771.9987207986414
97,1,97,270,270,0.5,0.5,no_target,1,[],[],773.0552131999284,773.2986248992383
98,1,98,270,90,0.9,0.2,right,1,['right'],[1.1771588996052742],774.3533283993602,774.59872629866
0,2,0,270,90,0.4,0.5,right,1,['right'],[0.5079829003661871],783.4826975986362,783.732063299045
1,2,1,90,270,0.4,0.5,left,1,[],[],784.7912113983184,785.0315611995757
2,2,2,90,270,0.4,0.5,left,1,[],[],786.0908576995134,786.3312601987273
3,2,3,90,270,0.5,0.4,left,1,[],[],787.3887976985425,787.6315402984619
4,2,4,270,270,0.9,0.2,no_target,1,[],[],788.6861573997885,788.9319481998682
5,2,5,270,270,0.5,0.5,no_target,1,[],[],789.988052399829,790.2320259995759
6,2,6,270,270,0.4,0.4,no_target,1,[],[],791.2912225984037,791.5319580994546
7,2,7,90,270,0.9,0.2,left,1,['left'],[0.4706598985940218],792.5907226987183,792.832053899765
8,2,8,90,270,0.4,0.4,left,1,[],[],793.8897442985326,794.1321456991136
9,2,9,270,90,0.9,0.2,right,1,[],[],795.1900352984667,795.4313440993428
10,2,10,270,90,0.4,0.5,right,1,['right'],[0.49845570139586926],796.488333798945,796.7319551985711
11,2,11,270,90,0.4,0.4,right,1,[],[],797.7894900999963,798.0317058991641
12,2,12,270,270,0.4,0.5,no_target,1,[],[],799.090583698824,799.3319871984422
13,2,13,270,90,0.9,0.2,right,1,['left'],[0.4337121993303299],800.3875567987561,800.6319874990731
14,2,14,90,270,0.5,0.4,left,1,[],[],801.6904603987932,801.931934999302
15,2,15,270,90,0.9,0.2,right,1,[],[],802.9909163992852,803.2319927997887
16,2,16,90,270,0.9,0.2,left,1,['left'],[0.4196978993713856],804.2895904984325,804.531851099804
17,2,17,270,90,0.9,0.2,right,1,[],[],805.5883345995098,805.8319631982595
18,2,18,270,270,0.4,0.4,no_target,1,[],[],806.889623099938,807.131936499849
19,2,19,90,270,0.9,0.2,left,1,['left'],[0.45521340146660805],808.1899825986475,808.4319735988975
20,2,20,270,90,0.9,0.2,right,1,[],[],809.4913392998278,809.7320087999105
21,2,21,270,270,0.9,0.2,no_target,1,[],[],810.7895277999341,811.0320015996695
22,2,22,270,270,0.5,0.4,no_target,1,[],[],812.0910815000534,812.3321879990399
23,2,23,270,90,0.5,0.4,right,1,[],[],813.3909919988364,813.6313890982419
24,2,24,270,90,0.4,0.5,right,1,[],[],814.6912647988647,814.9320994000882
25,2,25,270,90,0.5,0.5,right,1,[],[],815.991351198405,816.2320137992501
26,2,26,270,90,0.5,0.4,right,1,['right'],[0.5409465003758669],817.2902501989156,817.5319963991642
27,2,27,90,270,0.9,0.2,left,1,['left'],[0.606310399249196],818.5909240990877,818.8314420990646
28,2,28,270,270,0.9,0.2,no_target,1,[],[],819.889381499961,820.131698699668
29,2,29,270,270,0.5,0.5,no_target,1,[],[],821.1883347984403,821.43200009875
30,2,30,270,90,0.9,0.2,right,1,[],[],822.4912870991975,822.732177099213
31,2,31,90,270,0.5,0.4,left,1,['left'],[0.6394052989780903],823.7899196986109,824.0320136994123
32,2,32,90,270,0.5,0.5,left,1,[],[],825.0907552000135,825.331873299554
33,2,33,270,270,0.9,0.2,no_target,1,[],[],826.3898273985833,826.6318746991456
34,2,34,270,90,0.5,0.4,right,1,[],[],827.6886621993035,827.9315750990063
35,2,35,90,270,0.5,0.4,left,1,['right'],[0.5869843009859324],828.9912161994725,829.232006398961
36,2,36,270,270,0.9,0.2,no_target,1,[],[],830.2900051996112,830.5320120994002
37,2,37,270,90,0.9,0.2,right,1,[],[],831.5915668997914,831.831992899999
38,2,38,90,270,0.9,0.2,left,1,['left'],[0.4422071985900402],832.8910079989582,833.1319825984538
39,2,39,90,270,0.9,0.2,left,1,[],[],834.1912146992981,834.4316253997386
40,2,40,270,270,0.5,0.5,no_target,1,[],[],835.4914737995714,835.7320098988712
41,2,41,270,90,0.4,0.5,right,1,[],[],836.7892762999982,837.0319970995188
42,2,42,270,270,0.5,0.5,no_target,1,[],[],838.0906390994787,838.3319876994938
43,2,43,90,270,0.5,0.5,left,1,['left'],[0.502513600513339],839.3903689999133,839.6315448991954
44,2,44,90,270,0.5,0.5,left,1,[],[],840.689544999972,840.9319358989596
45,2,45,270,90,0.5,0.4,right,1,['right'],[0.485937999561429],841.9908289983869,842.2319866996258
46,2,46,270,90,0.5,0.5,right,1,[],[],843.2855961993337,843.5319598987699
47,2,47,270,90,0.5,0.4,right,1,['right'],[0.6863100007176399],844.5914056990296,844.8319610990584
48,2,48,270,270,0.9,0.2,no_target,1,[],[],845.8886352982372,846.1319183986634
49,2,49,270,90,0.4,0.5,right,1,[],[],847.1885818000883,847.4319082982838
50,2,50,270,270,0.9,0.2,no_target,1,[],[],848.4871880989522,848.7319491989911
51,2,51,90,270,0.4,0.4,left,1,['left'],[0.4714611005038023],849.7898404989392,850.032041599974
52,2,52,90,270,0.9,0.2,left,1,['left'],[0.6602312009781599],851.0893127992749,851.332252599299
53,2,53,90,270,0.4,0.4,left,1,[],[],852.3900982998312,852.6319866999984
54,2,54,270,270,0.5,0.4,no_target,1,[],[],853.690525399521,853.931937398389
55,2,55,90,270,0.5,0.5,left,1,['left'],[0.5291071999818087],854.9878776986152,855.2319157999009
56,2,56,270,270,0.9,0.2,no_target,1,[],[],856.2907384000719,856.5315388999879
57,2,57,90,270,0.4,0.4,left,1,[],[],857.592373399064,857.8320136982948
58,2,58,90,270,0.4,0.5,left,1,[],[],858.8905609995127,859.1320385988802
59,2,59,270,270,0.9,0.2,no_target,1,[],[],860.1902701985091,860.4319080989808
60,2,60,270,270,0.9,0.2,no_target,1,[],[],861.485809199512,861.7319433987141
61,2,61,270,90,0.9,0.2,right,1,['left'],[1.1612619999796152],862.7882713992149,863.0319443996996
62,2,62,270,270,0.4,0.5,no_target,1,[],[],864.0888190995902,864.3319575991482
63,2,63,90,270,0.5,0.5,left,1,[],[],865.3892274983227,865.6319752000272
64,2,64,270,270,0.4,0.5,no_target,1,[],[],866.6863714996725,866.9319249987602
65,2,65,90,270,0.9,0.2,left,1,['left'],[0.7022714000195265],867.9907373990864,868.2319233994931
66,2,66,270,90,0.9,0.2,right,1,[],[],869.291024999693,869.5319320000708
67,2,67,270,270,0.4,0.5,no_target,1,[],[],870.5863817986101,870.8319133985788
68,2,68,270,270,0.9,0.2,no_target,1,[],[],871.8891801983118,872.1315724998713
69,2,69,90,270,0.5,0.4,left,1,['left'],[0.5584945995360613],873.1908141989261,873.4319463986903
70,2,70,270,90,0.5,0.5,right,1,['right'],[0.6138145998120308],874.4897333998233,874.7319692987949
71,2,71,270,270,0.5,0.5,no_target,1,[],[],875.7905891984701,876.0319082997739
72,2,72,90,270,0.9,0.2,left,1,['left'],[0.5061927009373903],877.0907740984112,877.3319161999971
73,2,73,270,90,0.4,0.4,right,1,['right'],[0.5314846001565456],878.3875347990543,878.6312693990767
74,2,74,90,270,0.9,0.2,left,1,['left'],[0.6009544003754854],879.6841607000679,879.9312207996845
75,2,75,90,270,0.4,0.5,left,1,[],[],880.9858551993966,881.2319551985711
76,2,76,270,90,0.4,0.4,right,1,['right'],[0.7136241011321545],882.2904017996043,882.5319817997515
77,2,77,90,270,0.9,0.2,left,1,['left'],[0.4059650991111994],883.5907408986241,883.8319099992514
78,2,78,270,90,0.4,0.4,right,1,['right'],[0.5148274004459381],884.8910760991275,885.1323103997856
79,2,79,270,270,0.4,0.4,no_target,1,[],[],886.1905731000006,886.4316412992775
80,2,80,270,270,0.5,0.4,no_target,1,[],[],887.4913521986455,887.7319419998676
81,2,81,270,270,0.9,0.2,no_target,1,[],[],888.7896899990737,889.0319198984653
82,2,82,270,270,0.5,0.4,no_target,1,[],[],890.0890314988792,890.331745699048
83,2,83,90,270,0.9,0.2,left,1,['left'],[0.47895490005612373],891.3901321999729,891.6319257989526
84,2,84,270,90,0.9,0.2,right,1,[],[],892.6902356985956,892.9319502990693
85,2,85,270,90,0.9,0.2,right,1,['right'],[0.43417409993708134],893.9899059999734,894.2320283986628
86,2,86,270,90,0.5,0.5,right,1,[],[],895.2906201984733,895.5316919982433
87,2,87,270,90,0.9,0.2,right,1,[],[],896.5899319984019,896.8320943992585
88,2,88,270,270,0.5,0.4,no_target,1,[],[],897.8895573988557,898.1316051986068
89,2,89,90,270,0.4,0.4,left,1,['left'],[0.4961012005805969],899.1890685986727,899.432041099295
90,2,90,270,270,0.4,0.4,no_target,1,[],[],900.4885468985885,900.7319708000869
91,2,91,270,270,0.4,0.5,no_target,1,[],[],901.7908752989024,902.0321050994098
92,2,92,90,270,0.9,0.2,left,1,['left'],[0.4994193986058235],903.0897595994174,903.3315976988524
93,2,93,270,90,0.4,0.4,right,1,[],[],904.3908949997276,904.6315190996975
94,2,94,270,90,0.5,0.5,right,1,[],[],905.6885104998946,905.9319271985441
95,2,95,90,270,0.4,0.5,left,1,['left'],[0.5905634015798569],906.9908502995968,907.2319130990654
96,2,96,270,270,0.9,0.2,no_target,1,[],[],908.290797399357,908.5321075990796
97,2,97,270,270,0.4,0.4,no_target,1,[],[],909.5901799984276,909.8318926990032
98,2,98,270,90,0.9,0.2,right,1,['right'],[0.7353570982813835],910.8909766990691,911.1314519997686
0,3,0,270,90,0.2,0.9,right,0,['right'],[0.6420883983373642],953.2164952997118,953.4653301984072
1,3,1,270,90,0.5,0.5,right,0,[],[],954.5201203990728,954.7644822988659
2,3,2,90,270,0.4,0.4,left,0,[],[],955.8168309982866,956.0652968995273
3,3,3,90,270,0.5,0.5,left,0,['left'],[1.0002177990972996],957.1248073987663,957.3648266997188
4,3,4,90,270,0.2,0.9,left,0,[],[],958.4229407999665,958.6648712996393
5,3,5,90,270,0.5,0.5,left,0,[],[],959.7229092996567,959.9646800998598
6,3,6,270,270,0.2,0.9,no_target,0,[],[],961.0170463994145,961.2651834990829
7,3,7,270,270,0.4,0.5,no_target,0,[],[],962.3222971986979,962.5652984995395
8,3,8,270,270,0.5,0.4,no_target,0,[],[],963.6246143989265,963.8652007989585
9,3,9,90,270,0.5,0.4,left,0,['left'],[0.6404213011264801],964.9247349984944,965.1647521983832
10,3,10,270,90,0.4,0.4,right,0,['right'],[0.46055869944393635],966.2234336994588,966.4652648996562
11,3,11,270,90,0.2,0.9,right,0,['right'],[0.5977477002888918],967.5169851984829,967.7647954989225
12,3,12,270,90,0.4,0.5,right,0,[],[],968.8226953987032,969.0645802989602
13,3,13,90,270,0.5,0.4,left,0,['left'],[0.4836152996867895],970.1215853989124,970.3651712983847
14,3,14,270,270,0.4,0.4,no_target,0,[],[],971.422849798575,971.6652555000037
15,3,15,90,270,0.2,0.9,left,0,[],[],972.7225597985089,972.9647913984954
16,3,16,90,270,0.4,0.5,left,0,[],[],974.0229699984193,974.2652008999139
17,3,17,270,270,0.4,0.5,no_target,0,[],[],975.322940999642,975.5652434993535
18,3,18,90,270,0.5,0.4,left,0,[],[],976.6230480000377,976.8653702996671
19,3,19,270,90,0.4,0.4,right,0,['right'],[0.784137099981308],977.9216357991099,978.1647574994713
20,3,20,90,270,0.2,0.9,left,0,[],[],979.2220334988087,979.465222299099
21,3,21,270,270,0.5,0.5,no_target,0,[],[],980.522362999618,980.7655381988734
22,3,22,270,270,0.4,0.4,no_target,0,[],[],981.8227988984436,982.0647912994027
23,3,23,90,270,0.2,0.9,left,0,['right'],[0.49163750000298023],983.1192373000085,983.3647950999439
24,3,24,90,270,0.2,0.9,left,0,[],[],984.4225267991424,984.665255298838
25,3,25,270,270,0.2,0.9,no_target,0,[],[],985.7226064000279,985.9649267997593
26,3,26,90,270,0.4,0.4,left,0,[],[],987.0247916989028,987.2647926993668
27,3,27,270,270,0.2,0.9,no_target,0,['right'],[0.6297057997435331],988.3247130997479,988.5649901982397
28,3,28,90,270,0.2,0.9,left,0,[],[],989.6202176995575,989.865221299231
29,3,29,270,90,0.2,0.9,right,0,['right'],[0.44830079935491085],990.9238231983036,991.1652409993112
30,3,30,270,90,0.4,0.5,right,0,[],[],992.2244735993445,992.4652715995908
31,3,31,270,270,0.5,0.5,no_target,0,[],[],993.5230503994972,993.7651884984225
32,3,32,270,270,0.5,0.4,no_target,0,[],[],994.825528498739,995.0652644988149
33,3,33,270,270,0.5,0.5,no_target,0,[],[],996.1221933998168,996.364789199084
34,3,34,270,90,0.2,0.9,right,0,['right'],[0.817026499658823],997.418498698622,997.6652779988945
35,3,35,270,90,0.2,0.9,right,0,[],[],998.7254873998463,998.9652513992041
36,3,36,90,270,0.2,0.9,left,0,[],[],1000.0227069985121,1000.2652904000133
37,3,37,90,270,0.4,0.5,left,0,['left'],[0.7758741993457079],1001.3248425982893,1001.5653395000845
38,3,38,270,90,0.2,0.9,right,0,['right'],[0.4747548997402191],1002.6246237996966,1002.8652515988797
39,3,39,270,270,0.2,0.9,no_target,0,[],[],1003.9246915988624,1004.1652298998088
40,3,40,270,270,0.2,0.9,no_target,0,[],[],1005.2232770994306,1005.4652613997459
41,3,41,90,270,0.5,0.5,left,0,['left'],[0.4660662990063429],1006.5229597985744,1006.7649988997728
42,3,42,90,270,0.2,0.9,left,0,[],[],1007.821754898876,1008.0646642986685
43,3,43,270,270,0.4,0.4,no_target,0,[],[],1009.1233665999025,1009.3653197996318
44,3,44,270,90,0.4,0.4,right,0,['right'],[0.5166623014956713],1010.4224950987846,1010.6655790992081
45,3,45,270,270,0.2,0.9,no_target,0,[],[],1011.7246645987034,1011.9652996994555
46,3,46,270,270,0.2,0.9,no_target,0,[],[],1013.0248203985393,1013.2652260996401
47,3,47,270,270,0.2,0.9,no_target,0,[],[],1014.3250215984881,1014.5652321986854
48,3,48,270,90,0.5,0.4,right,0,['right'],[0.39059959910809994],1015.623906198889,1015.8652325998992
49,3,49,90,270,0.4,0.5,left,0,['left'],[0.5435567013919353],1016.9254150986671,1017.1647362988442
50,3,50,90,270,0.4,0.4,left,0,['left'],[0.5143768992275],1018.2184330988675,1018.4644240997732
51,3,51,270,270,0.2,0.9,no_target,0,[],[],1019.5213148985058,1019.7648031990975
52,3,52,270,270,0.5,0.5,no_target,0,[],[],1020.8183381985873,1021.0652379989624
53,3,53,270,90,0.2,0.9,right,0,['right'],[0.5894373003393412],1022.1193872988224,1022.3653222993016
54,3,54,270,270,0.4,0.5,no_target,0,[],[],1023.4234339985996,1023.665270799771
55,3,55,270,270,0.2,0.9,no_target,0,[],[],1024.7224387992173,1024.965261599049
56,3,56,270,90,0.4,0.5,right,0,['left'],[0.1030943002551794],1026.021869899705,1026.2649786993861
57,3,57,270,90,0.2,0.9,right,0,[],[],1027.3197898995131,1027.564672799781
58,3,58,270,270,0.2,0.9,no_target,0,['right'],[0.373929800465703],1028.6246624998748,1028.864724399522
59,3,59,270,90,0.2,0.9,right,0,['right'],[0.6445383988320827],1029.9208113998175,1030.1652372982353
60,3,60,270,90,0.4,0.5,right,0,[],[],1031.2243072986603,1031.4648517984897
61,3,61,270,270,0.4,0.4,no_target,0,[],[],1032.5223811995238,1032.7652320992202
62,3,62,90,270,0.4,0.5,left,0,['left'],[0.607405599206686],1033.8218561988324,1034.0649043992162
63,3,63,270,270,0.5,0.4,no_target,0,[],[],1035.1227580998093,1035.364869499579
64,3,64,270,270,0.5,0.5,no_target,0,[],[],1036.4191608987749,1036.665243299678
65,3,65,270,90,0.5,0.5,right,0,['right'],[0.7798934001475573],1037.722734598443,1037.9653303995728
66,3,66,90,270,0.4,0.5,left,0,['left'],[0.667993500828743],1039.0168861988932,1039.265228798613
67,3,67,270,90,0.4,0.5,right,0,[],[],1040.3235966991633,1040.5653871987015
68,3,68,270,90,0.5,0.4,right,0,[],[],1041.6214055996388,1041.8652587998658
69,3,69,270,90,0.4,0.4,right,0,['right'],[0.6820490006357431],1042.919358599931,1043.1653891988099
70,3,70,270,90,0.5,0.5,right,0,[],[],1044.223128799349,1044.4647273998708
71,3,71,270,90,0.2,0.9,right,0,['right'],[0.5336530990898609],1045.5231500994414,1045.765259699896
72,3,72,270,90,0.5,0.5,right,0,['right'],[0.49768489971756935],1046.822251899168,1047.0652747992426
73,3,73,270,270,0.2,0.9,no_target,0,[],[],1048.1212571989745,1048.3645927999169
74,3,74,270,90,0.5,0.4,right,0,['right'],[0.4787240996956825],1049.4228312987834,1049.6652660984546
75,3,75,270,270,0.4,0.4,no_target,0,[],[],1050.7258630990982,1050.9652896989137
76,3,76,270,270,0.5,0.4,no_target,0,[],[],1052.0228550992906,1052.2652771994472
77,3,77,90,270,0.5,0.4,left,0,['left'],[0.5414214003831148],1053.3196506984532,1053.5653096996248
78,3,78,270,90,0.5,0.4,right,0,[],[],1054.6229969989508,1054.8652419988066
79,3,79,90,270,0.2,0.9,left,0,[],[],1055.9222950991243,1056.165011499077
80,3,80,90,270,0.5,0.5,left,0,[],[],1057.2227548994124,1057.4652642998844
81,3,81,270,270,0.2,0.9,no_target,0,[],[],1058.5228322986513,1058.765356399119
82,3,82,270,90,0.5,0.4,right,0,[],[],1059.8225121982396,1060.0652855988592
83,3,83,90,270,0.2,0.9,left,0,[],[],1061.1227404996753,1061.3649261984974
84,3,84,270,270,0.5,0.4,no_target,0,[],[],1062.4221262987703,1062.665021698922
85,3,85,270,90,0.2,0.9,right,0,['right'],[0.3663653992116451],1063.7252097986639,1063.965263498947
86,3,86,90,270,0.2,0.9,left,0,[],[],1065.0227653998882,1065.2652591988444
87,3,87,270,90,0.2,0.9,right,0,[],[],1066.3231792990118,1066.5652823988348
88,3,88,90,270,0.2,0.9,left,0,[],[],1067.6232445985079,1067.8652701992542
89,3,89,90,270,0.4,0.4,left,0,[],[],1068.9203361999243,1069.1652585994452
90,3,90,270,270,0.4,0.5,no_target,0,[],[],1070.2255006991327,1070.4652760997415
91,3,91,270,90,0.5,0.5,right,0,[],[],1071.5239709988236,1071.765305198729
92,3,92,270,90,0.2,0.9,right,0,['right'],[0.4880041014403105],1072.821285000071,1073.06526619941
93,3,93,270,270,0.4,0.5,no_target,0,[],[],1074.1217809990048,1074.3652729988098
94,3,94,90,270,0.5,0.5,left,0,['left'],[0.5501259006559849],1075.4231488984078,1075.6652474999428
95,3,95,90,270,0.4,0.4,left,0,['left'],[0.6082086991518736],1076.717131299898,1076.9652971997857
96,3,96,90,270,0.5,0.4,left,0,['left'],[1.1299187000840902],1078.0189854986966,1078.264915799722
97,3,97,270,90,0.4,0.4,right,0,[],[],1079.322112198919,1079.5654900986701
98,3,98,90,270,0.2,0.9,left,0,[],[],1080.6232864987105,1080.865457098931
0,4,0,270,270,0.5,0.4,no_target,1,[],[],1089.399783499539,1089.6485842987895
1,4,1,270,270,0.4,0.4,no_target,1,[],[],1090.70775959827,1090.948599198833
2,4,2,90,270,0.9,0.2,left,1,['left'],[0.4471934996545315],1092.0056259986013,1092.2485873997211
3,4,3,270,90,0.5,0.4,right,1,[],[],1093.3070477992296,1093.548507798463
4,4,4,90,270,0.5,0.5,left,1,[],[],1094.6068179998547,1094.848056199029
5,4,5,270,90,0.5,0.4,right,1,[],[],1095.9066433999687,1096.148355199024
6,4,6,270,270,0.4,0.4,no_target,1,[],[],1097.2051751986146,1097.4485262986273
7,4,7,270,270,0.4,0.4,no_target,1,[],[],1098.5070447996259,1098.7485855985433
8,4,8,90,270,0.9,0.2,left,1,['left'],[0.526809100061655],1099.8061545994133,1100.0485125984997
9,4,9,270,270,0.9,0.2,no_target,1,[],[],1101.105951398611,1101.3481869995594
10,4,10,270,90,0.9,0.2,right,1,[],[],1102.4072340987623,1102.6485367994756
11,4,11,270,90,0.4,0.4,right,1,[],[],1103.706946099177,1103.9480724986643
12,4,12,270,90,0.9,0.2,right,1,[],[],1105.0020329989493,1105.248526899144
13,4,13,270,90,0.5,0.4,right,1,[],[],1106.3067108988762,1106.5485328994691
14,4,14,270,90,0.9,0.2,right,1,[],[],1107.607540698722,1107.848600698635
15,4,15,270,270,0.5,0.4,no_target,1,['left'],[0.2897815015166998],1108.9072025995702,1109.1485875993967
16,4,16,270,90,0.5,0.5,right,1,[],[],1110.2080197986215,1110.4485460985452
17,4,17,270,270,0.9,0.2,no_target,1,[],[],1111.5003328993917,1111.7485378999263
18,4,18,270,270,0.4,0.5,no_target,1,[],[],1112.8072657994926,1113.0485373996198
19,4,19,90,270,0.9,0.2,left,1,['left'],[0.46833950094878674],1114.104440499097,1114.3485349994153
20,4,20,270,270,0.4,0.4,no_target,1,[],[],1115.4055824000388,1115.6480884999037
21,4,21,270,270,0.5,0.4,no_target,1,[],[],1116.7064533997327,1116.9485295992345
22,4,22,270,270,0.9,0.2,no_target,1,[],[],1118.0069854985923,1118.248185198754
23,4,23,270,270,0.4,0.5,no_target,1,[],[],1119.306878099218,1119.5479362998158
24,4,24,90,270,0.4,0.4,left,1,['left'],[0.47831100039184093],1120.606703799218,1120.8481676988304
25,4,25,270,90,0.9,0.2,right,1,[],[],1121.9074951987714,1122.1483271997422
26,4,26,270,90,0.5,0.5,right,1,['right'],[0.6239755004644394],1123.207513898611,1123.4484768994153
27,4,27,270,90,0.4,0.4,right,1,[],[],1124.5067023988813,1124.7485140990466
28,4,28,270,90,0.4,0.4,right,1,[],[],1125.8060692995787,1126.048560898751
29,4,29,270,90,0.4,0.5,right,1,['right'],[0.6777569986879826],1127.1005401983857,1127.348093898967
30,4,30,90,270,0.9,0.2,left,1,['left'],[0.4846512991935015],1128.4085677992553,1128.6485227998346
31,4,31,90,270,0.4,0.5,left,1,[],[],1129.704294398427,1129.9483051989228
32,4,32,270,90,0.9,0.2,right,1,[],[],1131.0024965982884,1131.2477226983756
33,4,33,90,270,0.5,0.5,left,1,['left'],[0.4834471996873617],1132.305732998997,1132.5484989993274
34,4,34,270,90,0.9,0.2,right,1,[],[],1133.6069136988372,1133.8485231995583
35,4,35,270,270,0.9,0.2,no_target,1,[],[],1134.9079217985272,1135.1485230997205
36,4,36,90,270,0.4,0.4,left,1,[],[],1136.2077616993338,1136.4485569987446
37,4,37,270,270,0.9,0.2,no_target,1,['left'],[1.253438200801611],1137.503029199317,1137.7485742997378
38,4,38,90,270,0.4,0.5,left,1,[],[],1138.8078062999994,1139.0484230984002
39,4,39,270,90,0.4,0.5,right,1,[],[],1140.1062129996717,1140.348067998886
40,4,40,270,90,0.9,0.2,right,1,[],[],1141.4078381992877,1141.6477238982916
41,4,41,270,270,0.5,0.4,no_target,1,[],[],1142.703937098384,1142.9486190993339
42,4,42,270,270,0.9,0.2,no_target,1,[],[],1144.0052518993616,1144.2485240995884
43,4,43,270,90,0.9,0.2,right,1,[],[],1145.3044717982411,1145.548470698297
44,4,44,90,270,0.9,0.2,left,1,['left'],[0.532328300178051],1146.6008737999946,1146.8485252987593
45,4,45,270,90,0.5,0.4,right,1,[],[],1147.9067399986088,1148.148564999923
46,4,46,270,270,0.5,0.5,no_target,1,[],[],1149.2002703994513,1149.4481782987714
47,4,47,90,270,0.9,0.2,left,1,['left'],[0.4982754997909069],1150.5068551991135,1150.7485144995153
48,4,48,270,270,0.9,0.2,no_target,1,[],[],1151.8066090997308,1152.0485143996775
49,4,49,270,270,0.9,0.2,no_target,1,[],[],1153.1033458989114,1153.3485347982496
50,4,50,90,270,0.5,0.4,left,1,['left'],[0.4769231006503105],1154.408104699105,1154.6485158987343
51,4,51,270,90,0.9,0.2,right,1,['left'],[0.7341032009571791],1155.702913299203,1155.9486021995544
52,4,52,90,270,0.4,0.5,left,1,[],[],1157.0070105995983,1157.2485497985035
53,4,53,270,90,0.4,0.5,right,1,[],[],1158.3072272986174,1158.5485596992075
54,4,54,270,270,0.5,0.5,no_target,1,[],[],1159.6071660984308,1159.8487263992429
55,4,55,90,270,0.9,0.2,left,1,['left'],[0.5244360994547606],1160.904739998281,1161.1485549993813
56,4,56,270,90,0.5,0.5,right,1,[],[],1162.206460999325,1162.4488047994673
57,4,57,270,270,0.9,0.2,no_target,1,[],[],1163.506374699995,1163.7478898987174
58,4,58,90,270,0.9,0.2,left,1,['left'],[1.0608348995447159],1164.8003832995892,1165.0484667997807
59,4,59,90,270,0.9,0.2,left,1,[],[],1166.1067689992487,1166.3485252987593
60,4,60,90,270,0.5,0.4,left,1,['left'],[0.501257199794054],1167.4079912994057,1167.6480963993818
61,4,61,270,270,0.9,0.2,no_target,1,[],[],1168.7072315998375,1168.9484541993588
62,4,62,270,90,0.4,0.5,right,1,['right'],[0.7927002999931574],1170.0074696987867,1170.2485397998244
63,4,63,90,270,0.5,0.5,left,1,['left'],[0.5232724994421005],1171.3057450987399,1171.548525698483
64,4,64,90,270,0.9,0.2,left,1,['left'],[0.6221747994422913],1172.6068593990058,1172.84804029949
65,4,65,270,270,0.9,0.2,no_target,1,[],[],1173.9073634985834,1174.1485663000494
66,4,66,270,90,0.4,0.4,right,1,[],[],1175.207010898739,1175.4486590996385
67,4,67,270,90,0.5,0.5,right,1,[],[],1176.5076070986688,1176.748218998313
68,4,68,270,270,0.4,0.5,no_target,1,[],[],1177.807563399896,1178.0476188994944
69,4,69,90,270,0.5,0.5,left,1,['left'],[0.4827640000730753],1179.1060870997608,1179.3485737983137
70,4,70,270,270,0.5,0.4,no_target,1,[],[],1180.405104599893,1180.6485944986343
71,4,71,270,270,0.5,0.5,no_target,1,[],[],1181.7042778991163,1181.9486635997891
72,4,72,90,270,0.5,0.4,left,1,['left'],[1.07902479916811],1183.005971899256,1183.248442798853
73,4,73,270,90,0.5,0.5,right,1,['right'],[0.5255699995905161],1184.3064711987972,1184.5485711991787
74,4,74,270,90,0.9,0.2,right,1,[],[],1185.606214499101,1185.848600199446
75,4,75,270,270,0.5,0.5,no_target,1,[],[],1186.9078252986073,1187.1478671990335
76,4,76,90,270,0.5,0.4,left,1,['left'],[0.6236824989318848],1188.2055812999606,1188.447901898995
77,4,77,270,270,0.4,0.5,no_target,1,[],[],1189.501779999584,1189.748475600034
78,4,78,90,270,0.9,0.2,left,1,['left'],[0.4658145010471344],1190.8030451983213,1191.0485665984452
79,4,79,270,270,0.4,0.4,no_target,1,[],[],1192.1069949995726,1192.3485680986196
80,4,80,270,270,0.4,0.5,no_target,1,[],[],1193.4078000988811,1193.6485204994678
81,4,81,270,90,0.4,0.5,right,1,['right'],[0.5067274998873472],1194.7078913990408,1194.9485672991723
82,4,82,270,90,0.9,0.2,right,1,[],[],1196.0069153998047,1196.2485575992614
83,4,83,90,270,0.4,0.5,left,1,['left'],[0.45751990005373955],1197.3077115993947,1197.5484438985586
84,4,84,90,270,0.4,0.4,left,1,['left'],[0.47499139979481697],1198.6021703984588,1198.8486027996987
85,4,85,90,270,0.4,0.4,left,1,[],[],1199.9032318983227,1200.148529799655
86,4,86,270,90,0.4,0.4,right,1,['right'],[0.6092230994254351],1201.202001299709,1201.4481325987726
87,4,87,270,90,0.9,0.2,right,1,[],[],1202.5072578992695,1202.7481816988438
88,4,88,270,90,0.9,0.2,right,1,[],[],1203.8049561996013,1204.0479559991509
89,4,89,270,270,0.9,0.2,no_target,1,[],[],1205.1046551987529,1205.3485324997455
90,4,90,90,270,0.4,0.4,left,1,['left'],[0.5021507013589144],1206.4070399999619,1206.6485452987254
91,4,91,270,270,0.9,0.2,no_target,1,[],[],1207.7071968000382,1207.9481832999736
92,4,92,90,270,0.9,0.2,left,1,[],[],1209.0060874987394,1209.2477318998426
93,4,93,90,270,0.9,0.2,left,1,['left'],[0.02705710008740425],1210.3057633992285,1210.5484455991536
94,4,94,90,270,0.5,0.4,left,1,[],[],1211.6054139994085,1211.848550999537
95,4,95,270,90,0.5,0.4,right,1,['right'],[0.7629706002771854],1212.9073844999075,1213.148545699194
96,4,96,90,270,0.5,0.5,left,1,[],[],1214.2073539998382,1214.4485192000866
97,4,97,90,270,0.4,0.5,left,1,[],[],1215.501530598849,1215.747932098806
98,4,98,270,270,0.5,0.5,no_target,1,[],[],1216.8055989984423,1217.048529498279
0,5,0,90,270,0.4,0.5,left,0,[],[],1240.1333741992712,1240.3818911984563
1,5,1,270,270,0.4,0.5,no_target,0,['left'],[0.549439599737525],1241.43952809833,1241.6811082996428
2,5,2,270,270,0.2,0.9,no_target,0,[],[],1242.738938998431,1242.9818385988474
3,5,3,90,270,0.2,0.9,left,0,[],[],1244.0380184985697,1244.2818743996322
4,5,4,270,90,0.2,0.9,right,0,['right'],[0.46580049954354763],1245.3410605993122,1245.581802798435
5,5,5,270,270,0.5,0.4,no_target,0,[],[],1246.6400686986744,1246.8811533991247
6,5,6,270,270,0.2,0.9,no_target,0,[],[],1247.9408482983708,1248.1817997992039
7,5,7,270,270,0.4,0.4,no_target,0,[],[],1249.2396524995565,1249.4815251994878
8,5,8,90,270,0.4,0.5,left,0,['left'],[0.4488347992300987],1250.5402568988502,1250.7819014992565
9,5,9,270,90,0.4,0.5,right,0,['right'],[0.472274299710989],1251.8395881000906,1252.081885298714
10,5,10,90,270,0.4,0.5,left,0,['left'],[0.8163321986794472],1253.1403301991522,1253.3814916983247
11,5,11,90,270,0.5,0.4,left,0,['left'],[0.9367103986442089],1254.4361274000257,1254.6818533986807
12,5,12,270,90,0.2,0.9,right,0,['right'],[0.7491356991231441],1255.7343739997596,1255.9809510987252
13,5,13,270,270,0.2,0.9,no_target,0,[],[],1257.0332619994879,1257.2810185998678
14,5,14,270,270,0.5,0.4,no_target,0,[],[],1258.333275899291,1258.5810236986727
15,5,15,90,270,0.2,0.9,left,0,['left'],[0.46637449972331524],1259.6341266985983,1259.8809508997947
16,5,16,270,90,0.2,0.9,right,0,[],[],1260.940790399909,1261.1817913986742
17,5,17,90,270,0.2,0.9,left,0,[],[],1262.2394338995218,1262.4818572998047
18,5,18,270,90,0.2,0.9,right,0,['right'],[0.6222604010254145],1263.5390101000667,1263.782130599022
19,5,19,90,270,0.2,0.9,left,0,[],[],1264.8397801984102,1265.0818288996816
20,5,20,90,270,0.2,0.9,left,0,['left'],[1.1654013004153967],1266.1387377995998,1266.3818548992276
21,5,21,90,270,0.5,0.5,left,0,[],[],1267.4392754994333,1267.6812801994383
22,5,22,270,270,0.4,0.5,no_target,0,[],[],1268.7374497000128,1268.9818588998169
23,5,23,270,90,0.2,0.9,right,0,['right'],[0.4819166995584965],1270.0405355989933,1270.2818035986274
24,5,24,270,90,0.5,0.5,right,0,[],[],1271.3361446000636,1271.5812578983605
25,5,25,270,90,0.5,0.5,right,0,['right'],[0.46848410181701183],1272.639847498387,1272.8818716984242
26,5,26,90,270,0.2,0.9,left,0,[],[],1273.9407310988754,1274.1818456985056
27,5,27,270,90,0.2,0.9,right,0,[],[],1275.238378798589,1275.4818992987275
28,5,28,90,270,0.2,0.9,left,0,[],[],1276.53815869987,1276.781859099865
29,5,29,270,90,0.2,0.9,right,0,['right'],[0.5971055012196302],1277.8353677988052,1278.0818121992052
30,5,30,270,90,0.4,0.4,right,0,[],[],1279.1403388995677,1279.3820164985955
31,5,31,270,270,0.5,0.5,no_target,0,[],[],1280.4418770000339,1280.6818947996944
32,5,32,90,270,0.4,0.4,left,0,[],[],1281.7334922999144,1281.9819634985179
33,5,33,270,270,0.4,0.5,no_target,0,[],[],1283.040958598256,1283.2818406987935
34,5,34,90,270,0.5,0.5,left,0,['left'],[0.574201799929142],1284.335053699091,1284.5818961989135
35,5,35,270,90,0.4,0.5,right,0,[],[],1285.6352753993124,1285.8816732987761
36,5,36,90,270,0.5,0.4,left,0,['left'],[0.7728078998625278],1286.9363222997636,1287.1818737983704
37,5,37,270,270,0.4,0.4,no_target,0,[],[],1288.240641599521,1288.481527298689
38,5,38,270,90,0.4,0.5,right,0,[],[],1289.534580098465,1289.7818640992045
39,5,39,270,90,0.4,0.5,right,0,[],[],1290.8387808986008,1291.081879099831
40,5,40,270,270,0.2,0.9,no_target,0,[],[],1292.140945898369,1292.3819004986435
41,5,41,270,90,0.5,0.5,right,0,['right'],[0.5458921995013952],1293.4352543000132,1293.6818893998861
42,5,42,270,90,0.4,0.4,right,0,[],[],1294.7399884983897,1294.9818528983742
43,5,43,90,270,0.2,0.9,left,0,[],[],1296.0413983985782,1296.28207529895
44,5,44,270,90,0.5,0.4,right,0,[],[],1297.3403387982398,1297.5821364987642
45,5,45,90,270,0.4,0.4,left,0,['left'],[0.5108935013413429],1298.6386342998594,1298.8818735983223
46,5,46,90,270,0.5,0.5,left,0,[],[],1299.9394215997308,1300.1818733997643
47,5,47,90,270,0.4,0.5,left,0,[],[],1301.2397319991142,1301.4819190986454
48,5,48,270,270,0.2,0.9,no_target,0,[],[],1302.5403637997806,1302.7821367997676
49,5,49,270,270,0.2,0.9,no_target,0,[],[],1303.8333773985505,1304.0813186988235
50,5,50,90,270,0.2,0.9,left,0,['left'],[0.5459506008774042],1305.1391736995429,1305.3818507995456
51,5,51,90,270,0.5,0.5,left,0,[],[],1306.4405914992094,1306.6820612996817
52,5,52,270,90,0.5,0.5,right,0,['right'],[0.4577139988541603],1307.7376723997295,1307.9821125995368
53,5,53,90,270,0.4,0.4,left,0,[],[],1309.041294099763,1309.2818836998194
54,5,54,270,270,0.2,0.9,no_target,0,[],[],1310.340387698263,1310.5822262987494
55,5,55,90,270,0.5,0.5,left,0,['left'],[0.4270668011158705],1311.6418771985918,1311.8816030994058
56,5,56,270,90,0.5,0.4,right,0,[],[],1312.9371863994747,1313.1818668991327
57,5,57,270,270,0.2,0.9,no_target,0,[],[],1314.2387010995299,1314.4816923998296
58,5,58,270,90,0.5,0.4,right,0,[],[],1315.5404939986765,1315.7816881984472
59,5,59,90,270,0.4,0.4,left,0,['left'],[0.6581999994814396],1316.835006898269,1317.0818935986608
60,5,60,270,90,0.4,0.4,right,0,[],[],1318.1388021986932,1318.381661299616
61,5,61,270,270,0.2,0.9,no_target,0,[],[],1319.4395433999598,1319.68187019974
62,5,62,90,270,0.5,0.4,left,0,['left'],[0.5202710013836622],1320.7411067988724,1320.9818975999951
63,5,63,90,270,0.2,0.9,left,0,[],[],1322.0384958982468,1322.2818707991391
64,5,64,270,270,0.5,0.5,no_target,0,[],[],1323.3396258987486,1323.581824399531
65,5,65,270,90,0.2,0.9,right,0,['right'],[0.627250000834465],1324.6405246984214,1324.881795398891
66,5,66,270,270,0.4,0.4,no_target,0,[],[],1325.9394415989518,1326.181834999472
67,5,67,90,270,0.2,0.9,left,0,[],[],1327.239488599822,1327.481848999858
68,5,68,270,90,0.2,0.9,right,0,['right'],[0.3963261991739273],1328.5390072986484,1328.781436599791
69,5,69,270,90,0.2,0.9,right,0,[],[],1329.8412312995642,1330.0816960986704
70,5,70,270,90,0.2,0.9,right,0,['right'],[0.5618500001728535],1331.1331896986812,1331.3820793982595
71,5,71,270,270,0.2,0.9,no_target,0,[],[],1332.439394298941,1332.681868698448
72,5,72,270,270,0.5,0.5,no_target,0,[],[],1333.73802369833,1333.9819303993136
73,5,73,270,270,0.4,0.4,no_target,0,[],[],1335.0387876983732,1335.2818608991802
74,5,74,270,270,0.4,0.5,no_target,0,[],[],1336.3407558985054,1336.5818312987685
75,5,75,90,270,0.5,0.4,left,0,['left'],[0.8540603015571833],1337.6391591988504,1337.8819421995431
76,5,76,90,270,0.2,0.9,left,0,[],[],1338.938144799322,1339.181648099795
77,5,77,270,90,0.5,0.5,right,0,['right'],[0.5279655996710062],1340.2384902983904,1340.4818579982966
78,5,78,270,270,0.4,0.4,no_target,0,[],[],1341.5392528995872,1341.7820723000914
79,5,79,270,270,0.5,0.5,no_target,0,[],[],1342.839367698878,1343.0818683989346
80,5,80,270,270,0.2,0.9,no_target,0,[],[],1344.1409509982914,1344.3820514995605
81,5,81,270,90,0.2,0.9,right,0,['right'],[0.5584523007273674],1345.4371234998107,1345.6817045994103
82,5,82,270,90,0.4,0.4,right,0,[],[],1346.739146798849,1346.9814314991236
83,5,83,270,270,0.5,0.4,no_target,0,[],[],1348.0403928998858,1348.2818280998617
84,5,84,270,90,0.4,0.5,right,0,['right'],[0.51207510009408],1349.338070699945,1349.581867299974
85,5,85,270,90,0.5,0.4,right,0,[],[],1350.6416608989239,1350.8818694986403
86,5,86,90,270,0.4,0.4,left,0,['left'],[0.4227891992777586],1351.9422134999186,1352.1810289993882
87,5,87,270,90,0.2,0.9,right,0,[],[],1353.2379213999957,1353.4812977984548
88,5,88,270,270,0.5,0.4,no_target,0,[],[],1354.5411113984883,1354.781920099631
89,5,89,90,270,0.5,0.4,left,0,[],[],1355.8422469999641,1356.0813899990171
90,5,90,90,270,0.4,0.5,left,0,['left'],[0.5354616995900869],1357.141648599878,1357.3816997986287
91,5,91,270,270,0.5,0.5,no_target,0,[],[],1358.4401343986392,1358.6813867986202
92,5,92,270,270,0.2,0.9,no_target,0,[],[],1359.7405733000487,1359.9818179998547
93,5,93,270,90,0.5,0.4,right,0,['right'],[0.5390437003225088],1361.0422893986106,1361.2814672999084
94,5,94,270,90,0.4,0.4,right,0,[],[],1362.3332126997411,1362.5810224991292
95,5,95,270,270,0.2,0.9,no_target,0,[],[],1363.636977698654,1363.8818016983569
96,5,96,90,270,0.2,0.9,left,0,[],[],1364.9416252989322,1365.1819559000432
97,5,97,270,270,0.4,0.5,no_target,0,[],[],1366.2418088000268,1366.4817771986127
98,5,98,270,270,0.5,0.4,no_target,0,[],[],1367.5406407993287,1367.7819263990968
0,6,0,90,270,0.2,0.9,left,0,[],[],1386.3324673995376,1386.5818518996239
1,6,1,90,270,0.5,0.4,left,0,[],[],1387.6383452992886,1387.8817842993885
2,6,2,90,270,0.5,0.4,left,0,['left'],[0.4638026002794504],1388.9410276990384,1389.1818474996835
3,6,3,270,270,0.2,0.9,no_target,0,[],[],1390.2389077991247,1390.4817665982991
4,6,4,270,270,0.5,0.5,no_target,0,[],[],1391.538858499378,1391.7814394999295
5,6,5,270,270,0.5,0.5,no_target,0,[],[],1392.8351964987814,1393.0818613991141
6,6,6,90,270,0.2,0.9,left,0,[],[],1394.1393108982593,1394.3814455997199
7,6,7,90,270,0.4,0.5,left,0,['left'],[0.5035043004900217],1395.4376371987164,1395.6819168999791
8,6,8,270,90,0.2,0.9,right,0,['right'],[0.714792599901557],1396.7410443983972,1396.9819029998034
9,6,9,270,90,0.2,0.9,right,0,[],[],1398.039156999439,1398.2818429991603
10,6,10,270,270,0.5,0.4,no_target,0,[],[],1399.3372169993818,1399.5818121992052
11,6,11,270,90,0.2,0.9,right,0,['right'],[0.5598147008568048],1400.6387166995555,1400.8817262984812
12,6,12,270,270,0.4,0.4,no_target,0,[],[],1401.9358334988356,1402.1817791983485
13,6,13,270,90,0.4,0.4,right,0,[],[],1403.23559919931,1403.481796098873
14,6,14,270,90,0.5,0.5,right,0,[],[],1404.5339232999831,1404.7818902991712
15,6,15,270,270,0.2,0.9,no_target,0,[],[],1405.8379231989384,1406.0820469986647
16,6,16,90,270,0.2,0.9,left,0,[],[],1407.1391062997282,1407.3812556993216
17,6,17,270,90,0.2,0.9,right,0,['right'],[0.5182638000696898],1408.439238699153,1408.681886298582
18,6,18,270,90,0.5,0.5,right,0,[],[],1409.7394130993634,1409.981843199581
19,6,19,270,90,0.4,0.5,right,0,[],[],1411.0377247985452,1411.281411798671
20,6,20,270,90,0.5,0.5,right,0,[],[],1412.3404149990529,1412.5818375982344
21,6,21,90,270,0.5,0.4,left,0,[],[],1413.640709798783,1413.8813221994787
22,6,22,90,270,0.4,0.5,left,0,['left'],[0.5624861009418964],1414.9383676983416,1415.1817399989814
23,6,23,90,270,0.2,0.9,left,0,[],[],1416.2400536984205,1416.4818305000663
24,6,24,270,270,0.2,0.9,no_target,0,[],[],1417.535927399993,1417.7818657997996
25,6,25,90,270,0.2,0.9,left,0,[],[],1418.8403896000236,1419.081645399332
26,6,26,270,270,0.5,0.4,no_target,0,[],[],1420.1408992987126,1420.3814056999981
27,6,27,90,270,0.2,0.9,left,0,[],[],1421.4388155993074,1421.6818501986563
28,6,28,270,90,0.2,0.9,right,0,['right'],[0.46182340011000633],1422.739195998758,1422.9821522999555
29,6,29,90,270,0.5,0.4,left,0,[],[],1424.039051098749,1424.2818383984268
30,6,30,270,270,0.2,0.9,no_target,0,[],[],1425.3354341983795,1425.581842398271
31,6,31,90,270,0.4,0.4,left,0,['left'],[1.1257083993405104],1426.6392166987062,1426.8818234000355
32,6,32,270,270,0.4,0.5,no_target,0,[],[],1427.9403547998518,1428.1816567983478
33,6,33,270,270,0.4,0.5,no_target,0,[],[],1429.2407301999629,1429.4815906994045
34,6,34,90,270,0.2,0.9,left,0,[],[],1430.538493398577,1430.7817736994475
35,6,35,270,270,0.4,0.4,no_target,0,[],[],1431.8416275996715,1432.0816599987447
36,6,36,270,270,0.4,0.4,no_target,0,[],[],1433.1369662992656,1433.381818998605
37,6,37,90,270,0.2,0.9,left,0,[],[],1434.4387470986694,1434.6818733997643
38,6,38,270,270,0.2,0.9,no_target,0,[],[],1435.7389897983521,1435.981377599761
39,6,39,270,90,0.4,0.5,right,0,['right'],[0.6415094994008541],1437.0391348991543,1437.281849598512
40,6,40,90,270,0.5,0.5,left,0,[],[],1438.3390034995973,1438.5814657993615
41,6,41,90,270,0.4,0.4,left,0,['left'],[0.7345658000558615],1439.638603599742,1439.8817997984588
42,6,42,270,270,0.2,0.9,no_target,0,[],[],1440.9405811000615,1441.181679399684
43,6,43,270,90,0.5,0.4,right,0,['right'],[0.445821201428771],1442.2413153983653,1442.4819717984647
44,6,44,270,270,0.5,0.5,no_target,0,[],[],1443.5415412988514,1443.7818897999823
45,6,45,270,90,0.5,0.5,right,0,[],[],1444.8392530996352,1445.081904798746
46,6,46,270,270,0.2,0.9,no_target,0,[],[],1446.1400864999741,1446.3817704990506
47,6,47,90,270,0.2,0.9,left,0,[],[],1447.4386213999242,1447.6817557998002
48,6,48,90,270,0.5,0.5,left,0,[],[],1448.737437799573,1448.9818305000663
49,6,49,270,270,0.4,0.5,no_target,0,['left'],[0.805230800062418],1450.039964299649,1450.2818562984467
50,6,50,90,270,0.5,0.5,left,0,['left'],[0.6667180005460978],1451.338234398514,1451.5814327988774
51,6,51,270,270,0.2,0.9,no_target,0,[],[],1452.6401188988239,1452.8820389993489
52,6,52,270,90,0.2,0.9,right,0,['right'],[0.5955290999263525],1453.939106799662,1454.1817419994622
53,6,53,90,270,0.4,0.4,left,0,['left'],[0.6070272997021675],1455.2380947992206,1455.4817739985883
54,6,54,270,90,0.5,0.4,right,0,[],[],1456.5373514983803,1456.7818682994694
55,6,55,90,270,0.5,0.5,left,0,['left'],[0.5794624015688896],1457.8336715996265,1458.0817480999976
56,6,56,270,270,0.4,0.5,no_target,0,[],[],1459.140417398885,1459.3814569991082
57,6,57,270,90,0.2,0.9,right,0,['right'],[0.46601760014891624],1460.4386893995106,1460.6818212997168
58,6,58,270,90,0.4,0.5,right,0,[],[],1461.7373536992818,1461.982033399865
59,6,59,270,90,0.4,0.4,right,0,[],[],1463.040643999353,1463.281813999638
60,6,60,270,270,0.4,0.4,no_target,0,['left'],[0.5238882005214691],1464.3372756000608,1464.5816917996854
61,6,61,90,270,0.5,0.5,left,0,[],[],1465.64082749933,1465.8817042987794
62,6,62,270,270,0.2,0.9,no_target,0,[],[],1466.9356838986278,1467.1819986999035
63,6,63,90,270,0.4,0.5,left,0,['left'],[0.27869209833443165],1468.2382055986673,1468.4817465990782
64,6,64,270,270,0.2,0.9,no_target,0,[],[],1469.536607099697,1469.7818206995726
65,6,65,90,270,0.4,0.4,left,0,[],[],1470.838416500017,1471.0818186998367
66,6,66,270,270,0.5,0.4,no_target,0,[],[],1472.1409361995757,1472.3816570993513
67,6,67,270,270,0.2,0.9,no_target,0,[],[],1473.4362578988075,1473.681791799143
68,6,68,270,90,0.4,0.4,right,0,['right'],[0.42991909943521023],1474.739628199488,1474.981902198866
69,6,69,270,270,0.2,0.9,no_target,0,['left'],[0.5098483003675938],1476.0392035990953,1476.2817761991173
70,6,70,90,270,0.2,0.9,left,0,[],[],1477.3382947985083,1477.5814836993814
71,6,71,270,270,0.5,0.5,no_target,0,[],[],1478.6331824995577,1478.8812411986291
72,6,72,270,270,0.4,0.5,no_target,0,[],[],1479.9386802986264,1480.1818222999573
73,6,73,270,270,0.5,0.4,no_target,0,[],[],1481.2363963983953,1481.480939399451
74,6,74,270,90,0.5,0.4,right,0,['right'],[0.5612661000341177],1482.5370845999569,1482.7818173989654
75,6,75,90,270,0.4,0.5,left,0,['left'],[0.5090303998440504],1483.839624799788,1484.0820230990648
76,6,76,90,270,0.2,0.9,left,0,[],[],1485.1402251999825,1485.3813381996006
77,6,77,270,90,0.5,0.5,right,0,[],[],1486.4387935996056,1486.6817666999996
78,6,78,270,90,0.2,0.9,right,0,['right'],[0.44410379976034164],1487.739166898653,1487.9817882999778
79,6,79,270,90,0.4,0.4,right,0,[],[],1489.0399771984667,1489.2818640992045
80,6,80,270,90,0.4,0.5,right,0,[],[],1490.3415840994567,1490.5815619993955
81,6,81,270,90,0.2,0.9,right,0,['right'],[0.5859166998416185],1491.6376009993255,1491.8817896991968
82,6,82,270,90,0.4,0.5,right,0,['right'],[0.5195454005151987],1492.94079839997,1493.1818315982819
83,6,83,270,90,0.5,0.4,right,0,[],[],1494.2387803997844,1494.4811022989452
84,6,84,90,270,0.5,0.4,left,0,['left'],[0.44119290076196194],1495.5399918984622,1495.7817912995815
85,6,85,270,90,0.2,0.9,right,0,['right'],[0.8801263011991978],1496.83853459917,1497.0821938998997
86,6,86,270,90,0.5,0.4,right,0,[],[],1498.1403316985816,1498.3816296998411
87,6,87,270,270,0.5,0.5,no_target,0,[],[],1499.435512298718,1499.68175829947
88,6,88,90,270,0.2,0.9,left,0,['left'],[0.4669479988515377],1500.7378424983472,1500.9818874988705
89,6,89,270,270,0.5,0.4,no_target,0,[],[],1502.0391626991332,1502.2816109992564
90,6,90,270,90,0.2,0.9,right,0,['right'],[0.47839259915053844],1503.3423751983792,1503.5816372986883
91,6,91,270,90,0.2,0.9,right,0,['right'],[0.4064399003982544],1504.6338325999677,1504.8820049986243
92,6,92,270,270,0.4,0.4,no_target,0,[],[],1505.9421757999808,1506.1820042990148
93,6,93,270,270,0.2,0.9,no_target,0,[],[],1507.2417552992702,1507.4820738993585
94,6,94,90,270,0.2,0.9,left,0,[],[],1508.540744798258,1508.7812831997871
95,6,95,90,270,0.4,0.5,left,0,[],[],1509.8420279994607,1510.0818037986755
96,6,96,270,90,0.4,0.4,right,0,[],[],1511.1397477984428,1511.3814603984356
97,6,97,270,90,0.2,0.9,right,0,['right'],[0.5632502008229494],1512.4402590990067,1512.6816671993583
98,6,98,90,270,0.4,0.4,left,0,['left'],[0.5030872002243996],1513.7420299984515,1513.9811688996851
0,7,0,90,270,0.2,0.9,left,0,[],[],1536.3500542994589,1536.5985135994852
1,7,1,270,90,0.2,0.9,right,0,['right'],[0.4608545992523432],1537.6579747982323,1537.8980215992779
2,7,2,270,90,0.2,0.9,right,0,['right'],[0.43519909866154194],1538.9553532991558,1539.1984956990927
3,7,3,90,270,0.4,0.5,left,0,['left'],[0.5254542008042336],1540.2555048000067,1540.4985282998532
4,7,4,270,90,0.2,0.9,right,0,['right'],[0.4577427003532648],1541.556023299694,1541.7984789982438
5,7,5,270,270,0.5,0.4,no_target,0,[],[],1542.8585716988891,1543.0983999986202
6,7,6,270,90,0.2,0.9,right,0,['right'],[0.4730971995741129],1544.1535721998662,1544.3983256984502
7,7,7,270,90,0.5,0.4,right,0,[],[],1545.455215299502,1545.698501398787
8,7,8,90,270,0.5,0.5,left,0,['left'],[0.5052262004464865],1546.7555602993816,1546.9984910991043
9,7,9,270,270,0.4,0.4,no_target,0,[],[],1548.0552549995482,1548.298485700041
10,7,10,270,270,0.2,0.9,no_target,0,[],[],1549.3555375989527,1549.5980686992407
11,7,11,90,270,0.4,0.4,left,0,['left'],[0.536048199981451],1550.6529024988413,1550.8979121986777
12,7,12,90,270,0.2,0.9,left,0,[],[],1551.9576490987092,1552.1985301990062
13,7,13,90,270,0.4,0.5,left,0,[],[],1553.2567674983293,1553.4984732996672
14,7,14,270,90,0.2,0.9,right,0,['right'],[0.3712430000305176],1554.5534772984684,1554.798665098846
15,7,15,270,90,0.5,0.5,right,0,[],[],1555.8579855989665,1556.0984006989747
16,7,16,90,270,0.5,0.4,left,0,['left'],[0.4450027011334896],1557.151510098949,1557.398437898606
17,7,17,270,270,0.5,0.4,no_target,0,[],[],1558.45588179864,1558.6985450983047
18,7,18,90,270,0.4,0.4,left,0,['left'],[0.5266155004501343],1559.758003698662,1559.9985318984836
19,7,19,270,90,0.2,0.9,right,0,['right'],[0.5311718005686998],1561.0546446982771,1561.2983099985868
20,7,20,270,90,0.4,0.5,right,0,[],[],1562.3530483990908,1562.5984263997525
21,7,21,270,270,0.2,0.9,no_target,0,[],[],1563.6570301000029,1563.898243099451
22,7,22,90,270,0.2,0.9,left,0,[],[],1564.9549851994962,1565.198092399165
23,7,23,90,270,0.2,0.9,left,0,[],[],1566.2564206998795,1566.4984294995666
24,7,24,270,90,0.4,0.4,right,0,['right'],[0.6864556986838579],1567.5574735999107,1567.798429198563
25,7,25,270,270,0.4,0.4,no_target,0,[],[],1568.8549988996238,1569.0986716989428
26,7,26,270,270,0.2,0.9,no_target,0,[],[],1570.1588640995324,1570.3978351000696
27,7,27,90,270,0.4,0.4,left,0,['left'],[0.5145057011395693],1571.4506512992084,1571.6985775996
28,7,28,90,270,0.5,0.4,left,0,['left'],[0.8069019000977278],1572.7583625987172,1572.9984283987433
29,7,29,90,270,0.5,0.4,left,0,['left'],[0.6288526989519596],1574.0562410000712,1574.2987461984158
30,7,30,270,270,0.2,0.9,no_target,0,[],[],1575.357073098421,1575.5983584988862
31,7,31,90,270,0.4,0.5,left,0,['left'],[0.5925907995551825],1576.6519653983414,1576.8983716983348
32,7,32,90,270,0.5,0.5,left,0,[],[],1577.9555391985923,1578.1986671984196
33,7,33,90,270,0.2,0.9,left,0,[],[],1579.2567570991814,1579.498420599848
34,7,34,270,270,0.4,0.5,no_target,0,[],[],1580.5506197996438,1580.7980081997812
35,7,35,270,270,0.5,0.5,no_target,0,[],[],1581.8559743985534,1582.09866559878
36,7,36,270,270,0.5,0.5,no_target,0,[],[],1583.1562626995146,1583.3983810991049
37,7,37,270,270,0.5,0.5,no_target,0,['right'],[0.6076450999826193],1584.4543404988945,1584.6984313987195
38,7,38,90,270,0.5,0.5,left,0,['left'],[0.6497485004365444],1585.755376799032,1585.9986431989819
39,7,39,270,270,0.2,0.9,no_target,0,[],[],1587.0554898995906,1587.2985168993473
40,7,40,90,270,0.2,0.9,left,0,[],[],1588.3547711987048,1588.5984284989536
41,7,41,270,270,0.2,0.9,no_target,0,[],[],1589.6524543985724,1589.898425899446
42,7,42,270,270,0.4,0.4,no_target,0,[],[],1590.956977399066,1591.1982041988522
43,7,43,270,90,0.2,0.9,right,0,['right'],[0.2865081001073122],1592.255455398932,1592.4980317987502
44,7,44,270,90,0.2,0.9,right,0,['right'],[0.45328270085155964],1593.5556573998183,1593.7986462991685
45,7,45,270,90,0.4,0.4,right,0,[],[],1594.8553311992437,1595.0983524993062
46,7,46,90,270,0.2,0.9,left,0,[],[],1596.1564592998475,1596.3985176999122
47,7,47,270,90,0.2,0.9,right,0,['right'],[0.6174091994762421],1597.453362999484,1597.6977093983442
48,7,48,90,270,0.5,0.5,left,0,['left'],[0.5460861008614302],1598.754573699087,1598.9978616982698
49,7,49,270,90,0.4,0.5,right,0,[],[],1600.0514786988497,1600.2985913995653
50,7,50,90,270,0.5,0.4,left,0,[],[],1601.3574588987976,1601.5986463986337
51,7,51,270,90,0.5,0.4,right,0,['right'],[0.5036203991621733],1602.6560860984027,1602.8984089996666
52,7,52,270,90,0.4,0.4,right,0,[],[],1603.954011598602,1604.1983982995152
53,7,53,270,90,0.5,0.5,right,0,[],[],1605.25498569943,1605.4983594994992
54,7,54,270,90,0.5,0.5,right,0,['right'],[0.5965376999229193],1606.556925199926,1606.7982945982367
55,7,55,90,270,0.4,0.5,left,0,['left'],[0.6700253002345562],1607.8547011986375,1608.0982942990959
56,7,56,270,270,0.2,0.9,no_target,0,[],[],1609.1566734984517,1609.3987211994827
57,7,57,270,270,0.4,0.4,no_target,0,[],[],1610.4561174996197,1610.6985769998282
58,7,58,270,270,0.5,0.4,no_target,0,[],[],1611.754687299952,1611.9984065983444
59,7,59,270,270,0.2,0.9,no_target,0,[],[],1613.0574336983263,1613.2985511999577
60,7,60,270,270,0.2,0.9,no_target,0,[],[],1614.3575526997447,1614.5983099993318
61,7,61,270,90,0.5,0.4,right,0,[],[],1615.6562887988985,1615.8978675995022
62,7,62,270,90,0.5,0.5,right,0,['right'],[0.8079939000308514],1616.956252899021,1617.198455998674
63,7,63,270,90,0.5,0.4,right,0,[],[],1618.25742550008,1618.498363899067
64,7,64,270,90,0.4,0.5,right,0,['right'],[0.5928559005260468],1619.557315999642,1619.7978981994092
65,7,65,270,90,0.4,0.5,right,0,[],[],1620.8509838990867,1621.0979304984212
66,7,66,90,270,0.2,0.9,left,0,[],[],1622.157067898661,1622.3979822993279
67,7,67,270,270,0.2,0.9,no_target,0,[],[],1623.4561510998756,1623.6984289996326
68,7,68,270,90,0.4,0.4,right,0,[],[],1624.7579256985337,1624.9986223988235
69,7,69,270,270,0.4,0.5,no_target,0,[],[],1626.0580815989524,1626.2985551990569
70,7,70,270,270,0.5,0.5,no_target,0,[],[],1627.356373598799,1627.5984683986753
71,7,71,270,270,0.5,0.5,no_target,0,[],[],1628.6562516000122,1628.8980915993452
72,7,72,270,90,0.5,0.5,right,0,['right'],[0.527266401797533],1629.9505300987512,1630.1984240990132
73,7,73,90,270,0.4,0.4,left,0,['left'],[0.5635043010115623],1631.2570320982486,1631.498287299648
74,7,74,90,270,0.2,0.9,left,0,[],[],1632.5549563989043,1632.797828398645
75,7,75,90,270,0.2,0.9,left,0,[],[],1633.851678499952,1634.0985190998763
76,7,76,270,270,0.5,0.4,no_target,0,[],[],1635.1571605987847,1635.3985160999
77,7,77,90,270,0.5,0.5,left,0,[],[],1636.4568996988237,1636.698384899646
78,7,78,270,90,0.2,0.9,right,0,['right'],[0.8782730996608734],1637.7546905986965,1637.9977147988975
79,7,79,270,270,0.4,0.5,no_target,0,[],[],1639.0548181999475,1639.2984454985708
80,7,80,270,90,0.4,0.5,right,0,[],[],1640.3544098995626,1640.5990103986114
81,7,81,270,90,0.2,0.9,right,0,[],[],1641.652029298246,1641.8978886995465
82,7,82,90,270,0.4,0.4,left,0,"['right', 'left']","[0.6264484990388155, 0.6102959997951984]",1642.9548095986247,1643.1980191990733
83,7,83,270,270,0.2,0.9,no_target,0,[],[],1644.2563491985202,1644.4985381998122
84,7,84,90,270,0.2,0.9,left,0,[],[],1645.5555178988725,1645.798393599689
85,7,85,270,90,0.4,0.4,right,0,[],[],1646.8551668990403,1647.0986121986061
86,7,86,270,90,0.2,0.9,right,0,['right'],[1.160699000582099],1648.1504113990813,1648.3984292000532
87,7,87,270,270,0.2,0.9,no_target,0,[],[],1649.4543501995504,1649.698640000075
88,7,88,270,270,0.5,0.4,no_target,0,[],[],1650.7552261985838,1650.9984881989658
89,7,89,90,270,0.2,0.9,left,0,[],[],1652.0573638994247,1652.297861898318
90,7,90,90,270,0.4,0.5,left,0,[],[],1653.3558041993529,1653.5984427984804
91,7,91,270,270,0.2,0.9,no_target,0,['left'],[0.7098017986863852],1654.6552961990237,1654.8984739985317
92,7,92,90,270,0.5,0.4,left,0,[],[],1655.9528400991112,1656.1986515000463
93,7,93,270,270,0.4,0.4,no_target,0,[],[],1657.2523840982467,1657.498438898474
94,7,94,90,270,0.2,0.9,left,0,[],[],1658.555835198611,1658.7984385993332
95,7,95,270,90,0.2,0.9,right,0,['right'],[0.4626978002488613],1659.8552866000682,1660.0984092988074
96,7,96,270,90,0.5,0.4,right,0,[],[],1661.1578494999558,1661.3983227983117
97,7,97,270,270,0.4,0.5,no_target,0,[],[],1662.4541873987764,1662.698634698987
98,7,98,270,270,0.4,0.5,no_target,0,[],[],1663.7581046000123,1663.998245999217
