row_id,block,trial,ori_left,ori_right,coherence_left,coherence_right,correct_response,condition,key_resp,key_resp.rt,stim_onset_time,stim_offset_time
0,0,0,90,270,0.2,0.9,left,0,[],[],28.700940500000115,28.949643400000014
1,0,1,270,90,0.2,0.9,right,0,[],[],30.00645880000002,30.250060400000166
2,0,2,270,90,0.2,0.9,right,0,['right'],[0.6969147999998313],31.30597970000008,31.54944280000018
3,0,3,90,270,0.4,0.5,left,0,['left'],[0.6120548999999755],32.60693070000002,32.84969890000002
4,0,4,270,90,0.2,0.9,right,0,['right'],[0.6632051999999931],33.90793050000002,34.14959440000007
5,0,5,270,270,0.5,0.4,no_target,0,[],[],35.20616390000009,35.449780000000146
6,0,6,270,90,0.2,0.9,right,0,['right'],[0.4615708999999697],36.5015664,36.74977130000002
7,0,7,270,90,0.5,0.4,right,0,[],[],37.80507880000005,38.04983179999999
8,0,8,90,270,0.5,0.5,left,0,['left'],[0.5279460000001563],39.10673140000017,39.349798599999986
9,0,9,270,270,0.4,0.4,no_target,0,[],[],40.40513550000014,40.64960790000009
10,0,10,270,270,0.2,0.9,no_target,0,[],[],41.70709160000001,41.94975590000013
11,0,11,90,270,0.4,0.4,left,0,['left'],[0.4291430999999193],43.00582710000003,43.24994420000007
12,0,12,90,270,0.2,0.9,left,0,['left'],[0.6040643999999702],44.302650700000186,44.54976260000012
13,0,13,90,270,0.4,0.5,left,0,[],[],45.604770900000176,45.84990690000018
14,0,14,270,90,0.2,0.9,right,0,['right'],[0.6711829999999281],46.907891300000074,47.149879700000156
15,0,15,270,90,0.5,0.5,right,0,['right'],[0.5260829000001195],48.20491870000001,48.44990010000015
16,0,16,90,270,0.5,0.4,left,0,['left'],[0.5452589000001353],49.50560010000004,49.74945450000018
17,0,17,270,270,0.5,0.4,no_target,0,[],[],50.80819630000019,51.049763700000085
18,0,18,90,270,0.4,0.4,left,0,['left'],[0.4150446000001011],52.107876900000065,52.34963220000009
19,0,19,270,90,0.2,0.9,right,0,['right'],[0.46885919999999714],53.40628460000016,53.64976640000009
20,0,20,270,90,0.4,0.5,right,0,['right'],[0.5559296999999788],54.70311700000002,54.94973360000017
21,0,21,270,270,0.2,0.9,no_target,0,[],[],56.0056141,56.24969850000002
22,0,22,90,270,0.2,0.9,left,0,[],[],57.304869199999985,57.5497292
23,0,23,90,270,0.2,0.9,left,0,[],[],58.60676680000006,58.84933810000007
24,0,24,270,90,0.4,0.4,right,0,['left'],[0.4562811000000693],59.90676789999998,60.14975830000003
25,0,25,270,270,0.4,0.4,no_target,0,[],[],61.20727000000011,61.449873500000194
26,0,26,270,270,0.2,0.9,no_target,0,[],[],62.505406600000015,62.74972230000003
27,0,27,90,270,0.4,0.4,left,0,['left'],[0.4879508999999871],63.84315390000006,64.06654800000001
28,0,28,90,270,0.5,0.4,left,0,['left'],[0.7910019999999349],65.12436100000014,65.36634550000008
29,0,29,90,270,0.5,0.4,left,0,['left'],[0.8590037999999822],66.42401820000009,66.66575970000008
30,0,30,270,270,0.2,0.9,no_target,0,[],[],67.72157390000007,67.9661281000001
31,0,31,90,270,0.4,0.5,left,0,[],[],69.02439530000015,69.26578289999998
32,0,32,90,270,0.5,0.5,left,0,['left'],[0.4246792999999798],70.32190300000002,70.56638250000015
33,0,33,90,270,0.2,0.9,left,0,['left'],[0.5485364000001027],71.62251450000008,71.86661570000001
34,0,34,270,270,0.4,0.5,no_target,0,[],[],72.92204680000009,73.16662010000005
35,0,35,270,270,0.5,0.5,no_target,0,[],[],74.22374639999998,74.46619810000016
36,0,36,270,270,0.5,0.5,no_target,0,[],[],75.52585150000004,75.7663199000001
37,0,37,270,270,0.5,0.5,no_target,0,[],[],76.82222109999998,77.06634370000006
38,0,38,90,270,0.5,0.5,left,0,['left'],[0.4572098000001006],78.12180770000009,78.36631770000008
39,0,39,270,270,0.2,0.9,no_target,0,['right'],[0.5712192000000869],79.42371800000001,79.66668479999998
40,0,40,90,270,0.2,0.9,left,0,[],[],80.7224397,80.96632169999998
41,0,41,270,270,0.2,0.9,no_target,0,[],[],82.01860290000013,82.26663960000019
42,0,42,270,270,0.4,0.4,no_target,0,[],[],83.32240490000004,83.56626070000016
43,0,43,270,90,0.2,0.9,right,0,['right'],[0.42950230000019474],84.6213107000001,84.86621220000006
44,0,44,270,90,0.2,0.9,right,0,['right'],[0.5533680999999433],85.9217764,86.16632530000015
45,0,45,270,90,0.4,0.4,right,0,['right'],[0.5639208000000053],87.22301060000018,87.4657493000002
46,0,46,90,270,0.2,0.9,left,0,['left'],[0.6556990999999925],88.5230719000001,88.76659590000008
47,0,47,270,90,0.2,0.9,right,0,['right'],[0.5967835999999807],89.82210710000004,90.0662725000002
48,0,48,90,270,0.5,0.5,left,0,['left'],[0.4818113999999696],91.12102500000015,91.36648090000017
49,0,49,270,90,0.4,0.5,right,0,['right'],[0.35795520000010583],92.42109980000009,92.66647290000014
50,0,50,90,270,0.5,0.4,left,0,['left'],[0.6160576000002038],93.72277270000018,93.96651020000013
51,0,51,270,90,0.5,0.4,right,0,['right'],[0.3646335999999337],95.02231510000001,95.26638720000005
52,0,52,270,90,0.4,0.4,right,0,['right'],[0.7031125999999404],96.32371940000007,96.5662960000002
53,0,53,270,90,0.5,0.5,right,0,['right'],[0.5606851999998526],97.6178566000001,97.8654895000002
54,0,54,270,90,0.5,0.5,right,0,['right'],[0.4586623000000145],98.92032519999998,99.1660429000001
55,0,55,90,270,0.4,0.5,left,0,['left'],[0.5303670999999213],100.22447640000019,100.46615560000009
56,0,56,270,270,0.2,0.9,no_target,0,[],[],101.51766120000002,101.76536090000013
57,0,57,270,270,0.4,0.4,no_target,0,[],[],102.82200640000019,103.06586560000005
58,0,58,270,270,0.5,0.4,no_target,0,[],[],104.12430240000003,104.36633230000007
59,0,59,270,270,0.2,0.9,no_target,0,[],[],105.42269099999999,105.66572940000015
60,0,60,270,270,0.2,0.9,no_target,0,[],[],106.72213260000012,106.96635120000019
61,0,61,270,90,0.5,0.4,right,0,['right'],[0.46737640000014835],108.02364180000018,108.26597270000002
62,0,62,270,90,0.5,0.5,right,0,['right'],[0.4882477999999537],109.3227244000002,109.56651710000006
63,0,63,270,90,0.5,0.4,right,0,['right'],[0.5575807000000168],110.62141480000014,110.86649920000013
64,0,64,270,90,0.4,0.5,right,0,['right'],[0.5927343999999266],111.92229659999998,112.16650600000003
65,0,65,270,90,0.4,0.5,right,0,['right'],[0.4453128000000106],113.22151510000003,113.46623480000017
66,0,66,90,270,0.2,0.9,left,0,['left'],[0.5843381999998201],114.52267530000017,114.76603829999999
67,0,67,270,270,0.2,0.9,no_target,0,[],[],115.82145860000014,116.06636930000013
68,0,68,270,90,0.4,0.4,right,0,['right'],[0.3375861000001805],117.12123450000013,117.36613699999998
69,0,69,270,270,0.4,0.5,no_target,0,[],[],118.42329960000006,118.66659100000015
70,0,70,270,270,0.5,0.5,no_target,0,[],[],119.72125560000018,119.96598749999998
71,0,71,270,270,0.5,0.5,no_target,0,[],[],121.02244410000003,121.2662699
72,0,72,270,90,0.5,0.5,right,0,['right'],[0.6031178999999156],122.31974770000011,122.56619569999998
73,0,73,90,270,0.4,0.4,left,0,['left'],[0.5406115000000682],123.62232240000003,123.86607990000016
74,0,74,90,270,0.2,0.9,left,0,['left'],[0.5727237000000969],124.91825940000012,125.1663645000001
75,0,75,90,270,0.2,0.9,left,0,['left'],[0.4762286000000131],126.22279650000019,126.46605340000019
76,0,76,270,270,0.5,0.4,no_target,0,[],[],127.52038779999998,127.76633590000006
77,0,77,90,270,0.5,0.5,left,0,['left'],[0.5014682999999422],128.82144770000014,129.0661719000002
78,0,78,270,90,0.2,0.9,right,0,['right'],[0.609369499999957],130.12117450000005,130.36637570000016
79,0,79,270,270,0.4,0.5,no_target,0,[],[],131.4198080000001,131.66625640000007
80,0,80,270,90,0.4,0.5,right,0,['right'],[0.6529092000000674],132.71765530000016,132.9653621
81,0,81,270,90,0.2,0.9,right,0,['right'],[0.41660259999980553],134.01781019999999,134.26532229999998
82,0,82,90,270,0.4,0.4,left,0,['left'],[0.5408155000000079],135.31758960000002,135.56537079999998
83,0,83,270,270,0.2,0.9,no_target,0,[],[],136.6177017,136.86545490000003
84,0,84,90,270,0.2,0.9,left,0,[],[],137.92244630000005,138.16630400000008
85,0,85,270,90,0.4,0.4,right,0,['right'],[0.38904870000010305],139.22148779999998,139.46596040000009
86,0,86,270,90,0.2,0.9,right,0,['right'],[0.424768800000038],140.5222325000002,140.76603870000008
87,0,87,270,270,0.2,0.9,no_target,0,[],[],141.82209550000016,142.06594370000016
88,0,88,270,270,0.5,0.4,no_target,0,[],[],143.12248820000013,143.36633440000014
89,0,89,90,270,0.2,0.9,left,0,['left'],[0.4922960999999759],144.42256680000014,144.6663433000001
90,0,90,90,270,0.4,0.5,left,0,['left'],[0.5685992999999598],145.72239000000013,145.9663210000001
91,0,91,270,270,0.2,0.9,no_target,0,[],[],147.0240311,147.2664638000001
92,0,92,90,270,0.5,0.4,left,0,[],[],148.32148300000017,148.56586730000004
93,0,93,270,270,0.4,0.4,no_target,0,[],[],149.6198856000001,149.86630850000006
94,0,94,90,270,0.2,0.9,left,0,[],[],150.92297540000004,151.1658953000001
95,0,95,270,90,0.2,0.9,right,0,['right'],[0.36776400000007925],152.21910760000014,152.46574720000012
96,0,96,270,90,0.5,0.4,right,0,[],[],153.52271810000002,153.7659821000002
97,0,97,270,270,0.4,0.5,no_target,0,[],[],154.82475520000003,155.06629870000006
98,0,98,270,270,0.4,0.5,no_target,0,[],[],156.1218672,156.3664268
0,1,0,90,270,0.9,0.2,left,1,['left'],[0.47395140000003266],164.41703610000013,164.6664870000002
1,1,1,270,270,0.9,0.2,no_target,1,[],[],165.7229109,165.96627420000004
2,1,2,90,270,0.5,0.5,left,1,['right'],[0.5070940999999038],167.02388080000014,167.26619180000012
3,1,3,270,270,0.9,0.2,no_target,1,[],[],168.322318,168.56644270000015
4,1,4,270,270,0.9,0.2,no_target,1,[],[],169.61917200000016,169.86607320000007
5,1,5,90,270,0.5,0.5,left,1,['left'],[0.43248259999995753],170.9224677000002,171.16632140000002
6,1,6,270,90,0.9,0.2,right,1,['right'],[0.570858600000065],172.2239152000002,172.46627510000008
7,1,7,270,270,0.4,0.4,no_target,1,[],[],173.52035480000018,173.76641680000012
8,1,8,270,270,0.9,0.2,no_target,1,[],[],174.82374490000007,175.06645120000007
9,1,9,90,270,0.9,0.2,left,1,['left'],[0.5353018000000702],176.12365190000014,176.3663153
10,1,10,270,90,0.5,0.5,right,1,['right'],[0.5715443999999934],177.42287780000015,177.66625169999998
11,1,11,270,270,0.4,0.4,no_target,1,[],[],178.72178630000008,178.96605080000018
12,1,12,270,90,0.4,0.4,right,1,[],[],180.02281440000002,180.26642000000015
13,1,13,90,270,0.4,0.4,left,1,[],[],181.31892670000002,181.56632250000007
14,1,14,90,270,0.9,0.2,left,1,['left'],[0.4876271999999062],182.61936409999998,182.8665073000002
15,1,15,90,270,0.9,0.2,left,1,['left'],[0.5516010999999708],183.9233474,184.16617870000005
16,1,16,90,270,0.4,0.4,left,1,['left'],[0.7303148000000874],185.22434320000002,185.46624080000015
17,1,17,90,270,0.9,0.2,left,1,['left'],[0.46830260000001545],186.51866970000015,186.76646100000016
18,1,18,270,90,0.9,0.2,right,1,['right'],[0.4360542000001715],187.8229487000001,188.06598400000007
19,1,19,90,270,0.9,0.2,left,1,['left'],[0.4322036000000935],189.12260830000014,189.3662068000001
20,1,20,90,270,0.9,0.2,left,1,['left'],[0.4115818999998737],190.42306630000007,190.66620710000007
21,1,21,90,270,0.4,0.5,left,1,['left'],[0.882873600000039],191.71985210000003,191.96618130000002
22,1,22,270,90,0.4,0.5,right,1,['right'],[0.6013488000000962],193.02537110000003,193.26618410000015
23,1,23,90,270,0.9,0.2,left,1,['left'],[0.32075209999993604],194.3220543,194.56652410000015
24,1,24,270,270,0.9,0.2,no_target,1,[],[],195.62244670000018,195.8661916000001
25,1,25,270,90,0.5,0.5,right,1,['right'],[0.3621169999998983],196.9207398000001,197.16605040000013
26,1,26,90,270,0.9,0.2,left,1,['left'],[0.4510669000001144],198.22375290000014,198.46655150000015
27,1,27,90,270,0.5,0.5,left,1,['left'],[0.5040177000000767],199.5228621000001,199.76617480000004
28,1,28,270,270,0.5,0.4,no_target,1,[],[],200.8244400000001,201.0660514000001
29,1,29,270,90,0.5,0.4,right,1,['right'],[0.42802659999983916],202.11884210000017,202.36623630000008
30,1,30,270,90,0.9,0.2,right,1,['left'],[0.49171819999992294],203.42316840000012,203.66650090000007
31,1,31,270,90,0.4,0.5,right,1,['right'],[0.7430168000000776],204.72378460000004,204.9661649000002
32,1,32,270,90,0.4,0.5,right,1,['right'],[0.5032822999999098],206.01961060000008,206.2661482000001
33,1,33,270,90,0.9,0.2,right,1,['right'],[0.6562376999997923],207.32266600000003,207.5663602000002
34,1,34,90,270,0.4,0.5,left,1,['left'],[0.6105368000000908],208.6239141000001,208.86616270000013
35,1,35,270,270,0.4,0.5,no_target,1,[],[],209.92255810000006,210.1664217
36,1,36,270,270,0.9,0.2,no_target,1,[],[],211.2215970000002,211.4661598
37,1,37,90,270,0.5,0.5,left,1,['left'],[0.6813634999998612],212.52138480000008,212.76613190000012
38,1,38,90,270,0.5,0.4,left,1,[],[],213.82262650000007,214.06613990000005
39,1,39,90,270,0.9,0.2,left,1,['left'],[0.3367278000000624],215.12219340000001,215.3657297000002
40,1,40,90,270,0.5,0.4,left,1,['left'],[0.36312180000004446],216.42360800000006,216.6662259000002
41,1,41,270,90,0.4,0.5,right,1,['right'],[0.4251386000000821],217.72181640000008,217.96621520000008
42,1,42,270,270,0.5,0.4,no_target,1,[],[],219.0218933000001,219.26621420000015
43,1,43,270,90,0.4,0.4,right,1,['right'],[0.43360250000000633],220.32128150000017,220.56610320000004
44,1,44,90,270,0.9,0.2,left,1,['left'],[0.4498516000001018],221.62506970000004,221.8662647000001
45,1,45,270,270,0.4,0.5,no_target,1,[],[],222.92235900000014,223.16616420000014
46,1,46,270,270,0.4,0.4,no_target,1,[],[],224.2226760000001,224.46580990000007
47,1,47,270,270,0.9,0.2,no_target,1,[],[],225.5181696000002,225.76615820000006
48,1,48,90,270,0.5,0.4,left,1,['left'],[0.509224199999835],226.82168360000014,227.06607500000018
49,1,49,270,270,0.5,0.4,no_target,1,[],[],228.1219466,228.36624340000003
50,1,50,270,270,0.9,0.2,no_target,1,[],[],229.42020150000008,229.6662156
51,1,51,90,270,0.4,0.5,left,1,['right'],[0.4330362000000605],230.72182120000002,230.96613650000018
52,1,52,270,270,0.4,0.5,no_target,1,[],[],232.02220690000013,232.266124
53,1,53,270,270,0.5,0.4,no_target,1,[],[],233.3246372000001,233.56524120000017
54,1,54,270,270,0.9,0.2,no_target,1,['left'],[0.43929689999981747],234.61960220000014,234.86619740000015
55,1,55,270,270,0.5,0.5,no_target,1,[],[],235.92207150000013,236.16529680000008
56,1,56,270,90,0.5,0.5,right,1,[],[],237.22401100000002,237.4663425000001
57,1,57,90,270,0.5,0.4,left,1,['left'],[0.5675049999999828],238.5234174000002,238.76572420000002
58,1,58,270,270,0.9,0.2,no_target,1,[],[],239.82221240000013,240.06615480000005
59,1,59,270,90,0.5,0.4,right,1,[],[],241.12118210000017,241.3660030000001
60,1,60,90,270,0.9,0.2,left,1,['left'],[0.34676439999998365],242.42369600000006,242.66555760000006
61,1,61,270,90,0.9,0.2,right,1,['right'],[0.5853980000001684],243.72143170000004,243.96568150000007
62,1,62,270,270,0.5,0.5,no_target,1,[],[],245.01894630000015,245.2660879
63,1,63,270,270,0.9,0.2,no_target,1,[],[],246.3220199,246.56616950000011
64,1,64,270,90,0.4,0.5,right,1,[],[],247.62023540000018,247.8660679000002
65,1,65,90,270,0.4,0.4,left,1,['left'],[0.48694529999988845],248.9237531000001,249.1663168
66,1,66,270,270,0.4,0.5,no_target,1,[],[],250.2210759000002,250.46596190000014
67,1,67,270,90,0.9,0.2,right,1,[],[],251.5211981,251.7659728000001
68,1,68,270,270,0.5,0.5,no_target,1,[],[],252.82344510000007,253.06616510000003
69,1,69,270,90,0.4,0.4,right,1,[],[],254.12070540000013,254.36605450000002
70,1,70,270,90,0.5,0.5,right,1,[],[],255.42138350000005,255.6660597
71,1,71,270,90,0.4,0.4,right,1,['right'],[0.39425710000000436],256.72077020000006,256.9660726000002
72,1,72,270,270,0.9,0.2,no_target,1,[],[],258.0186120000001,258.2657714000002
73,1,73,270,270,0.4,0.5,no_target,1,[],[],259.3216798000001,259.5661089
74,1,74,90,270,0.4,0.5,left,1,['left'],[0.4216259000002083],260.62146700000017,260.86588860000006
75,1,75,270,90,0.5,0.5,right,1,['right'],[0.4970889999999599],261.92164160000016,262.16626080000015
76,1,76,90,270,0.4,0.4,left,1,['left'],[0.5250191000000086],263.2218250000001,263.4656629000001
77,1,77,270,270,0.4,0.4,no_target,1,[],[],264.5235507,264.76613410000004
78,1,78,90,270,0.5,0.5,left,1,['left'],[0.5408082000001286],265.8219792,266.0660826000001
79,1,79,270,270,0.5,0.4,no_target,1,[],[],267.1242440000001,267.36616630000003
80,1,80,270,270,0.4,0.4,no_target,1,[],[],268.4213257000001,268.6661510000001
81,1,81,270,90,0.4,0.4,right,1,['right'],[0.8126806000000215],269.71804210000005,269.9654518
82,1,82,270,90,0.9,0.2,right,1,['right'],[0.4533202000000074],271.0214324000001,271.2661631000001
83,1,83,270,90,0.9,0.2,right,1,[],[],272.32194100000015,272.5657334
84,1,84,270,270,0.5,0.5,no_target,1,[],[],273.619514,273.86611500000004
85,1,85,270,90,0.9,0.2,right,1,['left'],[0.44011589999990974],274.9227430000001,275.16616550000003
86,1,86,270,90,0.9,0.2,right,1,['right'],[0.4716717000001154],276.22710070000016,276.46621960000016
87,1,87,270,90,0.5,0.4,right,1,['right'],[0.5918085999999221],277.5228856000001,277.76611980000007
88,1,88,90,270,0.9,0.2,left,1,['left'],[0.6447782000000188],278.8219742000001,279.0661427
89,1,89,270,90,0.9,0.2,right,1,['right'],[0.3849514999999428],280.12190410000017,280.3662482000002
90,1,90,270,90,0.5,0.4,right,1,[],[],281.4270821,281.66617010000004
91,1,91,90,270,0.4,0.5,left,1,['left'],[0.5594180999999026],282.7232607000001,282.96579250000013
92,1,92,90,270,0.5,0.4,left,1,['left'],[0.515563800000109],284.0231873,284.2662272
93,1,93,90,270,0.4,0.4,left,1,['left'],[0.7104666000000179],285.32403850000014,285.5661286000002
94,1,94,270,90,0.5,0.4,right,1,['right'],[0.4196073000000524],286.62322600000016,286.86613280000006
95,1,95,270,270,0.9,0.2,no_target,1,[],[],287.9240285000001,288.16625680000016
96,1,96,270,90,0.9,0.2,right,1,['right'],[0.5315522000000783],289.2231428,289.4658340000001
97,1,97,270,270,0.5,0.5,no_target,1,['right'],[0.5584332999999333],290.5242955000001,290.76613080000016
98,1,98,270,90,0.9,0.2,right,1,['right'],[0.883093400000007],291.8238231,292.06599270000015
0,2,0,270,90,0.4,0.5,right,1,['right'],[0.8055873000000702],304.3172940000002,304.5662275000002
1,2,1,90,270,0.4,0.5,left,1,[],[],305.6230750000002,305.86603850000006
2,2,2,90,270,0.4,0.5,left,1,[],[],306.92351570000005,307.1661131000001
3,2,3,90,270,0.5,0.4,left,1,['left'],[0.6477264999998624],308.2192771,308.4661470000001
4,2,4,270,270,0.9,0.2,no_target,1,[],[],309.5202465,309.7662186
5,2,5,270,270,0.5,0.5,no_target,1,['right'],[0.5246806000000106],310.8222376000001,311.0661937000002
6,2,6,270,270,0.4,0.4,no_target,1,[],[],312.1247672000002,312.3661517000003
7,2,7,90,270,0.9,0.2,left,1,['left'],[0.5639525999999933],313.4227263999999,313.6661873999999
8,2,8,90,270,0.4,0.4,left,1,[],[],314.7227215999999,314.96600360000025
9,2,9,270,90,0.9,0.2,right,1,[],[],316.0218774000002,316.26619600000026
10,2,10,270,90,0.4,0.5,right,1,[],[],317.3250166,317.5661835000003
11,2,11,270,90,0.4,0.4,right,1,[],[],318.62010680000026,318.8657574000001
12,2,12,270,270,0.4,0.5,no_target,1,[],[],319.9221196000001,320.1660482
13,2,13,270,90,0.9,0.2,right,1,[],[],321.2249185000003,321.46612040000014
14,2,14,90,270,0.5,0.4,left,1,['left'],[0.6894855000000462],322.5210932000002,322.7655381000002
15,2,15,270,90,0.9,0.2,right,1,[],[],323.8218107,324.0661772000001
16,2,16,90,270,0.9,0.2,left,1,['left'],[0.6329160000000229],325.12194520000025,325.3657389000002
17,2,17,270,90,0.9,0.2,right,1,['right'],[0.5051730000000134],326.4175554000001,326.6652964000002
18,2,18,270,270,0.4,0.4,no_target,1,[],[],327.7213941000002,327.9660019999999
19,2,19,90,270,0.9,0.2,left,1,['left'],[0.5019695999999385],329.0208497000001,329.2661982000002
20,2,20,270,90,0.9,0.2,right,1,['right'],[0.520897899999909],330.3221535,330.56530350000025
21,2,21,270,270,0.9,0.2,no_target,1,[],[],331.6202759,331.8659608999999
22,2,22,270,270,0.5,0.4,no_target,1,[],[],332.9237644000002,333.1654538
23,2,23,270,90,0.5,0.4,right,1,['right'],[0.9403968000001441],334.2223789000002,334.4659469999999
24,2,24,270,90,0.4,0.5,right,1,['right'],[0.49609220000002097],335.52283839999996,335.7661531000001
25,2,25,270,90,0.5,0.5,right,1,['right'],[0.41239150000001246],336.82219409999993,337.06605920000015
26,2,26,270,90,0.5,0.4,right,1,[],[],338.12406080000005,338.3655344000001
27,2,27,90,270,0.9,0.2,left,1,['left'],[0.5973217999999179],339.4211565000003,339.66611149999994
28,2,28,270,270,0.9,0.2,no_target,1,[],[],340.72403229999986,340.9660590000001
29,2,29,270,270,0.5,0.5,no_target,1,[],[],342.02262870000027,342.2657307000002
30,2,30,270,90,0.9,0.2,right,1,[],[],343.32358480000016,343.5653635000001
31,2,31,90,270,0.5,0.4,left,1,['left'],[0.5161493000000519],344.6223090000001,344.8661064999999
32,2,32,90,270,0.5,0.5,left,1,['left'],[0.5217413999998826],345.92105349999997,346.1659901999999
33,2,33,270,270,0.9,0.2,no_target,1,[],[],347.2237981999999,347.4660190000002
34,2,34,270,90,0.5,0.4,right,1,['right'],[0.47813459999997576],348.52444630000014,348.76585690000024
35,2,35,90,270,0.5,0.4,left,1,[],[],349.82198790000007,350.0660356000001
36,2,36,270,270,0.9,0.2,no_target,1,[],[],351.12352410000017,351.36599679999995
37,2,37,270,90,0.9,0.2,right,1,[],[],352.42240700000025,352.6661084
38,2,38,90,270,0.9,0.2,left,1,['left'],[0.6638450000000375],353.7228035999999,353.96609790000025
39,2,39,90,270,0.9,0.2,left,1,['left'],[0.5004227000003993],355.0220958000002,355.2656827000003
40,2,40,270,270,0.5,0.5,no_target,1,[],[],356.3224204999999,356.56592000000023
41,2,41,270,90,0.4,0.5,right,1,['right'],[0.48259790000020075],357.6241298000002,357.8660986000002
42,2,42,270,270,0.5,0.5,no_target,1,[],[],358.9186723,359.16603880000025
43,2,43,90,270,0.5,0.5,left,1,['left'],[0.46081739999999627],360.2221337000003,360.4654458000002
44,2,44,90,270,0.5,0.5,left,1,['left'],[0.5198543999999856],361.5228936000001,361.7657133
45,2,45,270,90,0.5,0.4,right,1,['right'],[0.3875868000000082],362.82303890000026,363.06606620000025
46,2,46,270,90,0.5,0.5,right,1,['right'],[0.7128494999997201],364.1216503000003,364.3659657999999
47,2,47,270,90,0.5,0.4,right,1,[],[],365.42128370000023,365.665788
48,2,48,270,270,0.9,0.2,no_target,1,[],[],366.7213701000003,366.96593940000025
49,2,49,270,90,0.4,0.5,right,1,['right'],[0.486216400000103],368.0204086000001,368.26614029999996
50,2,50,270,270,0.9,0.2,no_target,1,[],[],369.3222710000002,369.56609219999996
51,2,51,90,270,0.4,0.4,left,1,['left'],[0.5094046999997772],370.6212756000002,370.8658505000001
52,2,52,90,270,0.9,0.2,left,1,['left'],[0.4890497999999752],371.92155049999997,372.1660840000002
53,2,53,90,270,0.4,0.4,left,1,[],[],373.22070540000027,373.4659933999999
54,2,54,270,270,0.5,0.4,no_target,1,[],[],374.5237993000003,374.76604580000026
55,2,55,90,270,0.5,0.5,left,1,['left'],[0.4848077000001467],375.8217867999999,376.0656270000002
56,2,56,270,270,0.9,0.2,no_target,1,[],[],377.1217125999999,377.3659190000001
57,2,57,90,270,0.4,0.4,left,1,['left'],[0.5650404000002709],378.4215182999999,378.6656974
58,2,58,90,270,0.4,0.5,left,1,['left'],[0.7464066000002276],379.72003180000024,379.9657774
59,2,59,270,270,0.9,0.2,no_target,1,[],[],381.02203170000007,381.265975
60,2,60,270,270,0.9,0.2,no_target,1,[],[],382.3211366000003,382.5660860999999
61,2,61,270,90,0.9,0.2,right,1,['right'],[0.48532069999964733],383.62092880000023,383.8659202000001
62,2,62,270,270,0.4,0.5,no_target,1,[],[],384.9205589999999,385.16541660000007
63,2,63,90,270,0.5,0.5,left,1,['left'],[0.3649017000002459],386.22166870000024,386.4659319
64,2,64,270,270,0.4,0.5,no_target,1,[],[],387.52141069999993,387.76613010000005
65,2,65,90,270,0.9,0.2,left,1,['left'],[0.8861738999999034],388.82046700000024,389.06550859999993
66,2,66,270,90,0.9,0.2,right,1,[],[],390.12162490000014,390.3658450999999
67,2,67,270,270,0.4,0.5,no_target,1,[],[],391.4233085000003,391.6661010999999
68,2,68,270,270,0.9,0.2,no_target,1,[],[],392.7206773999999,392.9659872
69,2,69,90,270,0.5,0.4,left,1,['left'],[0.5467643000001772],394.02387150000027,394.2659013
70,2,70,270,90,0.5,0.5,right,1,['right'],[0.5798454999999194],395.3187860999999,395.56618249999997
71,2,71,270,270,0.5,0.5,no_target,1,[],[],396.6216010999999,396.8661307
72,2,72,90,270,0.9,0.2,left,1,['left'],[0.4484287999998742],397.9219356000001,398.1661294000003
73,2,73,270,90,0.4,0.4,right,1,['right'],[0.5172769000000699],399.22125930000016,399.46608390000006
74,2,74,90,270,0.9,0.2,left,1,[],[],400.5236305000001,400.76610159999996
75,2,75,90,270,0.4,0.5,left,1,[],[],401.8215066,402.0659688000003
76,2,76,270,90,0.4,0.4,right,1,['right'],[0.47968800000035117],403.12292649999995,403.3661743
77,2,77,90,270,0.9,0.2,left,1,['left'],[0.41990890000033687],404.42272530000014,404.6654301000001
78,2,78,270,90,0.4,0.4,right,1,['right'],[0.6478375000001506],405.7225605000001,405.9655924000001
79,2,79,270,270,0.4,0.4,no_target,1,[],[],407.0217733000002,407.2661771999999
80,2,80,270,270,0.5,0.4,no_target,1,[],[],408.3229229000001,408.5659711999999
81,2,81,270,270,0.9,0.2,no_target,1,[],[],409.6214932999999,409.86596729999997
82,2,82,270,270,0.5,0.4,no_target,1,[],[],410.9234659000001,411.1659323000001
83,2,83,90,270,0.9,0.2,left,1,['left'],[0.4798132999999325],412.2189383000002,412.4659678999999
84,2,84,270,90,0.9,0.2,right,1,['left'],[0.5274976999999126],413.5229068000001,413.76597890000016
85,2,85,270,90,0.9,0.2,right,1,[],[],414.82327310000005,415.0660086999999
86,2,86,270,90,0.5,0.5,right,1,['right'],[0.631456099999923],416.1231401000002,416.3659828000002
87,2,87,270,90,0.9,0.2,right,1,[],[],417.4231179000001,417.6659664000001
88,2,88,270,270,0.5,0.4,no_target,1,[],[],418.72186399999987,418.96564139999987
89,2,89,90,270,0.4,0.4,left,1,[],[],420.020209,420.26594520000003
90,2,90,270,270,0.4,0.4,no_target,1,[],[],421.3197739,421.56516110000007
91,2,91,270,270,0.4,0.5,no_target,1,[],[],422.6239406000002,422.8659511000003
92,2,92,90,270,0.9,0.2,left,1,['left'],[0.759743300000082],423.92287680000004,424.16577329999996
93,2,93,270,90,0.4,0.4,right,1,['right'],[0.7136183000002347],425.22489139999993,425.4658833000001
94,2,94,270,90,0.5,0.5,right,1,['right'],[0.37584190000006856],426.5228549000001,426.76551859999995
95,2,95,90,270,0.4,0.5,left,1,['left'],[0.4995450000001256],427.8230999,428.0659192999999
96,2,96,270,270,0.9,0.2,no_target,1,[],[],429.1218749000002,429.36568520000014
97,2,97,270,270,0.4,0.4,no_target,1,['right'],[0.5058130999996138],430.4248617999999,430.6659625
98,2,98,270,90,0.9,0.2,right,1,[],[],431.7227491000001,431.96613409999986
0,3,0,270,90,0.2,0.9,right,0,['right'],[0.4874650000001566],440.6986927999999,440.94837410000014
1,3,1,270,90,0.4,0.5,right,0,['right'],[0.8647649999998066],442.0013314,442.24861970000006
2,3,2,90,270,0.4,0.5,left,0,['left'],[0.6168519000002561],443.3058013000002,443.54913120000015
3,3,3,90,270,0.5,0.4,left,0,['left'],[0.5165501999999833],444.60603330000026,444.8493675000002
4,3,4,90,270,0.2,0.9,left,0,[],[],445.9058229,446.1492359000001
5,3,5,270,270,0.5,0.5,no_target,0,[],[],447.20568359999993,447.4494580000003
6,3,6,270,270,0.2,0.9,no_target,0,[],[],448.505934,448.74940119999997
7,3,7,90,270,0.2,0.9,left,0,[],[],449.8056629,450.0490923
8,3,8,90,270,0.5,0.5,left,0,['left'],[0.39311359999965134],451.10555260000024,451.34935900000005
9,3,9,270,270,0.2,0.9,no_target,0,[],[],452.40467250000006,452.64894990000016
10,3,10,270,270,0.5,0.4,no_target,0,[],[],453.7020580000001,453.9492090000001
11,3,11,90,270,0.2,0.9,left,0,"['right', 'left']","[0.5255326999999852, 0.5491732000000411]",455.0050953000002,455.24925770000004
12,3,12,90,270,0.5,0.5,left,0,['left'],[0.5547961999996005],456.3038484000001,456.54919459999996
13,3,13,270,90,0.5,0.4,right,0,['right'],[0.6572915000001558],457.60130159999994,457.8491368000002
14,3,14,270,90,0.2,0.9,right,0,['right'],[0.44179689999964467],458.9048408000001,459.14918850000026
15,3,15,270,90,0.2,0.9,right,0,['right'],[0.3193894999999429],460.2033094000001,460.44906430000015
16,3,16,270,90,0.4,0.4,right,0,['right'],[0.3784547999998722],461.50397529999987,461.7493864999999
17,3,17,270,270,0.4,0.4,no_target,0,[],[],462.80370199999993,463.0491307
18,3,18,270,90,0.4,0.4,right,0,[],[],464.1065605000001,464.3492354000002
19,3,19,90,270,0.4,0.4,left,0,['right'],[0.31619129999990037],465.40628059999995,465.64926960000025
20,3,20,270,90,0.2,0.9,right,0,[],[],466.70508270000005,466.9491639999999
21,3,21,270,90,0.2,0.9,right,0,['right'],[0.30171900000004825],468.0048266000001,468.2492353
22,3,22,270,90,0.5,0.4,right,0,[],[],469.3038194000003,469.5492262
23,3,23,270,270,0.4,0.5,no_target,0,[],[],470.60624340000027,470.84946349999996
24,3,24,90,270,0.4,0.4,left,0,['left'],[0.39394750000019485],471.9046654000001,472.1489724999999
25,3,25,90,270,0.5,0.5,left,0,['left'],[0.42904499999986],473.20541030000027,473.44932700000004
26,3,26,90,270,0.2,0.9,left,0,[],[],474.5053995999999,474.74917170000003
27,3,27,270,270,0.4,0.5,no_target,0,[],[],475.80764810000005,476.04917720000026
28,3,28,270,270,0.2,0.9,no_target,0,[],[],477.1051438000002,477.3491958000002
29,3,29,90,270,0.2,0.9,left,0,[],[],478.4043245999999,478.6491736999999
30,3,30,90,270,0.2,0.9,left,0,[],[],479.7058330000002,479.94919330000016
31,3,31,90,270,0.5,0.4,left,0,['left'],[0.3874860999999328],481.0069070000002,481.2490548000003
32,3,32,270,270,0.5,0.5,no_target,0,[],[],482.3044102000001,482.5491612000003
33,3,33,270,270,0.4,0.5,no_target,0,[],[],483.6046646000002,483.84902620000025
34,3,34,270,90,0.2,0.9,right,0,['right'],[0.442558199999894],484.90398070000015,485.1491228000002
35,3,35,90,270,0.2,0.9,left,0,[],[],486.2047763000003,486.44891299999995
36,3,36,90,270,0.4,0.5,left,0,['left'],[0.47429460000012114],487.5040580000002,487.74917260000007
37,3,37,270,270,0.2,0.9,no_target,0,[],[],488.80525220000004,489.0491112000002
38,3,38,90,270,0.4,0.5,left,0,['left'],[0.4960103000003073],490.1063551,490.34907020000014
39,3,39,270,270,0.4,0.4,no_target,0,[],[],491.4049115999999,491.6491388000002
40,3,40,90,270,0.4,0.5,left,0,['left'],[0.41835960000025807],492.70391010000026,492.9492143
41,3,41,270,270,0.5,0.4,no_target,0,[],[],494.0041242,494.2490889000003
42,3,42,270,270,0.2,0.9,no_target,0,[],[],495.30563099999995,495.5489261
43,3,43,270,90,0.5,0.5,right,0,['right'],[0.7009247999999388],496.6055696000001,496.8492005999999
44,3,44,90,270,0.2,0.9,left,0,['left'],[0.4082973999998103],497.9064071999999,498.14916689999995
45,3,45,270,270,0.4,0.4,no_target,0,[],[],499.20518700000025,499.4490060999999
46,3,46,270,90,0.5,0.5,right,0,['right'],[0.49171330000035596],500.5026424,500.74885990000007
47,3,47,270,270,0.5,0.5,no_target,0,[],[],501.8052433999999,502.04909280000015
48,3,48,90,270,0.5,0.5,left,0,['left'],[0.466517599999861],503.10394210000027,503.3489526000001
49,3,49,270,270,0.5,0.4,no_target,0,[],[],504.40523689999986,504.64903019999997
50,3,50,270,90,0.4,0.5,right,0,['right'],[0.41800389999980325],505.7044905,505.94901430000004
51,3,51,270,90,0.2,0.9,right,0,[],[],507.00436390000027,507.2490138999999
52,3,52,270,90,0.2,0.9,right,0,['right'],[0.3470433000002231],508.30317089999994,508.54820970000014
53,3,53,270,90,0.2,0.9,right,0,['right'],[0.43349380000017845],509.60082450000004,509.84919650000006
54,3,54,270,90,0.2,0.9,right,0,['right'],[0.457581300000129],510.9049182000001,511.14918150000017
55,3,55,270,90,0.4,0.5,right,0,['right'],[0.5252542000002904],512.2052590000001,512.4490148000002
56,3,56,270,90,0.5,0.4,right,0,[],[],513.5023610000001,513.7492027999999
57,3,57,270,90,0.5,0.5,right,0,[],[],514.8066147000002,515.0487058000001
58,3,58,270,90,0.4,0.4,right,0,['right'],[0.354389799999808],516.1040648999999,516.3493077
59,3,59,90,270,0.5,0.4,left,0,['left'],[0.5822855999999774],517.4040892999999,517.6490882999999
60,3,60,270,270,0.2,0.9,no_target,0,[],[],518.7048799000002,518.9491479000001
61,3,61,90,270,0.5,0.4,left,0,['left'],[0.4129604999998264],520.0053973000001,520.2491545999999
62,3,62,270,90,0.4,0.4,right,0,[],[],521.3043343000002,521.5488711999999
63,3,63,270,270,0.5,0.4,no_target,0,[],[],522.6048773,522.8491363
64,3,64,90,270,0.2,0.9,left,0,[],[],523.9045751000001,524.1492602999999
65,3,65,270,90,0.2,0.9,right,0,[],[],525.2046588000001,525.4492396000003
66,3,66,270,90,0.2,0.9,right,0,['right'],[0.6015105000001313],526.5048621000003,526.7488925999999
67,3,67,270,270,0.4,0.4,no_target,0,[],[],527.8048255000001,528.0493664000003
68,3,68,270,90,0.5,0.5,right,0,['left'],[0.5067620999998326],529.1036904,529.3492978000002
69,3,69,90,270,0.5,0.5,left,0,['left'],[0.5563604999997551],530.4059252,530.6492466000002
70,3,70,270,270,0.4,0.4,no_target,0,[],[],531.7031188000003,531.9490839000002
71,3,71,270,270,0.4,0.5,no_target,0,[],[],533.0043010000002,533.249043
72,3,72,90,270,0.4,0.5,left,0,[],[],534.3049755,534.5492135000002
73,3,73,270,270,0.2,0.9,no_target,0,[],[],535.6030962000002,535.8491427000001
74,3,74,90,270,0.2,0.9,left,0,[],[],536.9073568000001,537.149357
75,3,75,270,270,0.2,0.9,no_target,0,[],[],538.2010606000001,538.4493568
76,3,76,270,90,0.4,0.5,right,0,[],[],539.5045133000001,539.7491332000002
77,3,77,270,90,0.2,0.9,right,0,['right'],[0.46000699999967765],540.8061067000001,541.0493486000003
78,3,78,90,270,0.4,0.4,left,0,['left'],[0.5603393000001233],542.1059843,542.3492148000003
79,3,79,270,270,0.2,0.9,no_target,0,[],[],543.4056797999999,543.6491963000001
80,3,80,270,270,0.5,0.4,no_target,0,[],[],544.7074935000003,544.9490899
81,3,81,270,270,0.4,0.5,no_target,0,[],[],546.0068228000002,546.2491192
82,3,82,90,270,0.4,0.4,left,0,['left'],[0.49678099999982805],547.3054735000003,547.5492501000001
83,3,83,270,270,0.2,0.9,no_target,0,[],[],548.6024740999999,548.8490870000003
84,3,84,270,90,0.5,0.4,right,0,['right'],[0.43727839999974094],549.9011135000003,550.1490604000003
85,3,85,270,270,0.2,0.9,no_target,0,[],[],551.2037566000001,551.4490585000001
86,3,86,270,270,0.5,0.5,no_target,0,[],[],552.5049342,552.7490553
87,3,87,90,270,0.4,0.4,left,0,['left'],[0.5082448000002842],553.8061541,554.0490966
88,3,88,270,270,0.2,0.9,no_target,0,[],[],555.1043622,555.3491435000003
89,3,89,90,270,0.2,0.9,left,0,['left'],[0.501958299999842],556.4045060999999,556.6492392000002
90,3,90,90,270,0.2,0.9,left,0,[],[],557.7046310000003,557.9486834000002
91,3,91,270,270,0.5,0.5,no_target,0,[],[],559.0058510000001,559.2489254
92,3,92,270,270,0.2,0.9,no_target,0,[],[],560.305521,560.5490068000001
93,3,93,270,90,0.5,0.5,right,0,['right'],[0.3880797000001621],561.6061293,561.8492164000002
94,3,94,270,90,0.4,0.5,right,0,['right'],[0.5290080000004309],562.9052538000003,563.1491655000002
95,3,95,270,90,0.4,0.4,right,0,[],[],564.2031669999999,564.4490665000001
96,3,96,90,270,0.2,0.9,left,0,[],[],565.5061395,565.7489290000001
97,3,97,270,90,0.5,0.4,right,0,['right'],[0.38031709999995655],566.8055740000002,567.0490441
98,3,98,90,270,0.5,0.4,left,0,['left'],[0.6580662000001212],568.1044122000001,568.3490629
0,4,0,90,270,0.5,0.5,left,0,['left'],[0.9220460999999887],580.8003633000001,581.0492642000002
1,4,1,270,270,0.4,0.5,no_target,0,[],[],582.10429,582.3490736000001
2,4,2,270,270,0.5,0.5,no_target,0,['right'],[0.9836504999998397],583.4025709,583.6489426
3,4,3,270,90,0.2,0.9,right,0,['right'],[0.409428299999945],584.7050194999999,584.9490562000003
4,4,4,90,270,0.5,0.4,left,0,['left'],[0.3909782000000632],586.0032156,586.2490651
5,4,5,270,90,0.2,0.9,right,0,['right'],[0.34427089999962845],587.3059733000002,587.5490059000001
6,4,6,90,270,0.5,0.5,left,0,[],[],588.6048576000001,588.8486301999999
7,4,7,270,270,0.5,0.5,no_target,0,['left'],[0.4101581999998416],589.9043223000001,590.1485654999999
8,4,8,90,270,0.5,0.4,left,0,[],[],591.2067060000002,591.4490234000002
9,4,9,270,90,0.4,0.4,right,0,[],[],592.5066887999999,592.7490998000001
10,4,10,90,270,0.5,0.5,left,0,['left'],[0.5263267000000269],593.8039046000001,594.0490222999999
11,4,11,90,270,0.2,0.9,left,0,[],[],595.1059343,595.3490919000003
12,4,12,270,270,0.5,0.4,no_target,0,['left'],[0.3872177999996893],596.40698,596.6485169
13,4,13,270,90,0.4,0.4,right,0,['right'],[0.6160873000003448],597.7063197,597.9488289000003
14,4,14,90,270,0.4,0.4,left,0,['left'],[0.5018013999997493],599.0045219000001,599.2485483000003
15,4,15,270,90,0.2,0.9,right,0,['right'],[0.3458867999997892],600.3041037999999,600.5492038
16,4,16,270,90,0.4,0.5,right,0,[],[],601.6053632,601.8493676
17,4,17,270,270,0.5,0.4,no_target,0,[],[],602.9040975,603.1489374999999
18,4,18,90,270,0.2,0.9,left,0,[],[],604.2049208000001,604.4489907
19,4,19,270,270,0.2,0.9,no_target,0,[],[],605.5019180000002,605.7487085999999
20,4,20,270,270,0.2,0.9,no_target,0,[],[],606.8041991000002,607.0491278000002
21,4,21,270,270,0.4,0.4,no_target,0,[],[],608.1040467,608.3491162000003
22,4,22,270,270,0.4,0.4,no_target,0,[],[],609.4009311000002,609.6491117000003
23,4,23,270,90,0.5,0.5,right,0,[],[],610.7007016,610.9489845999999
24,4,24,270,90,0.5,0.4,right,0,[],[],612.0040357999999,612.2488608000001
25,4,25,270,90,0.5,0.5,right,0,['right'],[0.4612174999997478],613.3010752000002,613.5490074000002
26,4,26,270,90,0.5,0.4,right,0,['right'],[0.46906730000000607],614.6052744000001,614.8487808000002
27,4,27,270,270,0.5,0.5,no_target,0,[],[],615.9065034000002,616.1491844
28,4,28,90,270,0.4,0.5,left,0,['left'],[0.4309337999998206],617.2030695000001,617.4490023999999
29,4,29,90,270,0.2,0.9,left,0,[],[],618.5034926000001,618.7487667000003
30,4,30,270,270,0.5,0.4,no_target,0,[],[],619.8026667000001,620.0490535000001
31,4,31,270,90,0.4,0.5,right,0,"['left', 'right']","[0.5063801999999669, 0.8263268999999127]",621.1039158000001,621.3490349000001
32,4,32,270,270,0.2,0.9,no_target,0,[],[],622.4045681,622.6489922000003
33,4,33,270,90,0.2,0.9,right,0,['right'],[0.7857699999999568],623.7046691000003,623.9485538000001
34,4,34,270,270,0.2,0.9,no_target,0,[],[],625.0040348,625.2490617999999
35,4,35,270,90,0.4,0.4,right,0,['right'],[0.6978072000001703],626.3042840999999,626.5490362000003
36,4,36,270,270,0.4,0.4,no_target,0,[],[],627.6056848999999,627.8487713000002
37,4,37,270,270,0.2,0.9,no_target,0,[],[],628.9019229000003,629.1489705000001
38,4,38,90,270,0.4,0.5,left,0,"['right', 'left']","[0.5102933000002849, 0.46185960000002524]",630.2040573000002,630.4488484999999
39,4,39,270,270,0.2,0.9,no_target,0,[],[],631.5046375,631.7489846999999
40,4,40,270,270,0.2,0.9,no_target,0,[],[],632.8068887000002,633.0485641000002
41,4,41,270,270,0.2,0.9,no_target,0,[],[],634.1048976,634.3490063000002
42,4,42,270,270,0.2,0.9,no_target,0,['right'],[0.7806055999999444],635.4055252,635.6490488000002
43,4,43,270,90,0.4,0.4,right,0,['right'],[0.6406919000000926],636.7057987999999,636.9490103
44,4,44,270,270,0.4,0.5,no_target,0,[],[],638.0055089,638.2490387
45,4,45,270,270,0.4,0.4,no_target,0,[],[],639.3059467999999,639.5488099000002
46,4,46,90,270,0.2,0.9,left,0,['left'],[0.6219758999995975],640.6044516,640.8490905000001
47,4,47,270,270,0.5,0.5,no_target,0,[],[],641.9023424,642.1490019
48,4,48,270,270,0.5,0.4,no_target,0,['left'],[1.184023199999956],643.2026179000002,643.4490814000003
49,4,49,270,270,0.4,0.4,no_target,0,[],[],644.5060288000002,644.7490270000001
50,4,50,90,270,0.2,0.9,left,0,['left'],[0.7807812000000922],645.8055197000001,646.0489676
51,4,51,270,270,0.4,0.5,no_target,0,['right'],[0.5924600000003011],647.1058998999999,647.3490010000003
52,4,52,270,90,0.4,0.5,right,0,['right'],[0.4206601999999293],648.4058022000002,648.6490016
53,4,53,90,270,0.5,0.5,left,0,['left'],[0.6117413000001761],649.7026520000002,649.9491012000001
54,4,54,90,270,0.2,0.9,left,0,[],[],651.0038526000001,651.2489945
55,4,55,270,270,0.2,0.9,no_target,0,[],[],652.3041711000003,652.5491432000001
56,4,56,270,90,0.2,0.9,right,0,['right'],[0.4454252999998971],653.6047745000003,653.8489683
57,4,57,270,90,0.2,0.9,right,0,[],[],654.9045369000003,655.1490452999999
58,4,58,270,90,0.2,0.9,right,0,['right'],[0.5373392999999851],656.2010099000001,656.4489782000003
59,4,59,270,270,0.2,0.9,no_target,0,[],[],657.5041216000002,657.7489993000002
60,4,60,90,270,0.4,0.5,left,0,['left'],[0.660360099999707],658.8059182,659.0485739000003
61,4,61,270,90,0.5,0.4,right,0,['right'],[0.4324869000001854],660.1058209,660.3489334000003
62,4,62,270,90,0.4,0.5,right,0,['right'],[0.4773491999999351],661.4047478,661.6490469000003
63,4,63,270,90,0.2,0.9,right,0,['right'],[0.6174237999998695],662.7049349000001,662.9489851999999
64,4,64,270,90,0.5,0.5,right,0,['right'],[0.7650610000000597],664.0051907,664.2489212000003
65,4,65,90,270,0.5,0.4,left,0,['left'],[0.6252169999997932],665.3051048,665.5489137000002
66,4,66,270,270,0.5,0.5,no_target,0,[],[],666.6048249000003,666.8488757000002
67,4,67,270,90,0.2,0.9,right,0,['right'],[0.4016887000002498],667.9044635000002,668.1481690000003
68,4,68,90,270,0.4,0.5,left,0,['left'],[0.5884725999999318],669.2057577000003,669.4484592000001
69,4,69,90,270,0.2,0.9,left,0,[],[],670.5055924999999,670.7490042000002
70,4,70,270,270,0.4,0.5,no_target,0,[],[],671.8070364000002,672.0488733
71,4,71,90,270,0.2,0.9,left,0,['left'],[0.5275624000000789],673.1063953,673.3488869999999
72,4,72,270,270,0.2,0.9,no_target,0,[],[],674.4050361000002,674.648704
73,4,73,270,90,0.2,0.9,right,0,['right'],[0.721244100000149],675.7053017999999,675.9488472999999
74,4,74,270,90,0.4,0.5,right,0,[],[],677.0095790000003,677.2486433000001
75,4,75,270,90,0.4,0.4,right,0,[],[],678.3067766000001,678.5488040000002
76,4,76,90,270,0.2,0.9,left,0,[],[],679.6019432999999,679.8488783999999
77,4,77,90,270,0.4,0.4,left,0,[],[],680.9070253000002,681.1488893000003
78,4,78,90,270,0.4,0.4,left,0,[],[],682.2061498,682.4489538999999
79,4,79,270,270,0.5,0.4,no_target,0,[],[],683.5049455000001,683.7488805
80,4,80,90,270,0.4,0.4,left,0,[],[],684.8020838,685.0490631
81,4,81,270,90,0.2,0.9,right,0,['right'],[0.44902929999989283],686.1053073,686.3489031000001
82,4,82,270,90,0.2,0.9,right,0,[],[],687.4047754000001,687.6489099000003
83,4,83,270,90,0.5,0.4,right,0,['left'],[0.4892445000000407],688.7049754000002,688.9488182000002
84,4,84,90,270,0.5,0.4,left,0,['left'],[0.7817371000001003],690.0044006999999,690.2490589000001
85,4,85,90,270,0.2,0.9,left,0,['left'],[0.4477924000002531],691.3066022999999,691.5488170000001
86,4,86,90,270,0.2,0.9,left,0,['left'],[0.7254674999999224],692.6048750000002,692.8489506000003
87,4,87,270,90,0.2,0.9,right,0,['right'],[0.5523044999999911],693.9058391000001,694.1490322000002
88,4,88,270,270,0.2,0.9,no_target,0,[],[],695.2094807999999,695.4490241999999
89,4,89,90,270,0.2,0.9,left,0,['left'],[0.4483411999999589],696.5059888000003,696.7489182000002
90,4,90,90,270,0.4,0.4,left,0,['left'],[0.5797462000000451],697.8062169000002,698.0488588000001
91,4,91,90,270,0.2,0.9,left,0,[],[],699.1051936000001,699.3483965000003
92,4,92,90,270,0.5,0.4,left,0,['left'],[0.5093902999997226],700.4049185000001,700.6485461
93,4,93,270,90,0.5,0.5,right,0,[],[],701.7072771999999,701.9490154000002
94,4,94,270,90,0.5,0.4,right,0,[],[],703.0039777,703.2487333000001
95,4,95,90,270,0.5,0.5,left,0,['left'],[0.8047993999998653],704.3014900999999,704.5484413000001
96,4,96,270,90,0.5,0.5,right,0,[],[],705.6037815000002,705.8485696
97,4,97,90,270,0.4,0.5,left,0,['left'],[0.4888826000001245],706.9052654,707.1488193000002
98,4,98,270,270,0.4,0.5,no_target,0,[],[],708.2061590999999,708.4488834000001
0,5,0,270,90,0.2,0.9,right,0,['right'],[0.46721630000001824],748.7665742000002,749.0151019000002
1,5,1,270,90,0.5,0.5,right,0,['right'],[0.5584970999998404],750.0679424000002,750.3153871000002
2,5,2,90,270,0.4,0.4,left,0,['left'],[0.5677989000000707],751.3703287000001,751.6155346000003
3,5,3,90,270,0.5,0.5,left,0,[],[],752.6725873000003,752.9156089
4,5,4,90,270,0.2,0.9,left,0,[],[],753.9717231000002,754.2156763
5,5,5,90,270,0.5,0.5,left,0,['left'],[0.37859590000016397],755.2714478999999,755.5156846000002
6,5,6,270,270,0.2,0.9,no_target,0,[],[],756.5711131999999,756.8153227999999
7,5,7,270,270,0.4,0.5,no_target,0,[],[],757.8735586999999,758.1154524000001
8,5,8,270,270,0.5,0.4,no_target,0,[],[],759.1719264999999,759.4155530999999
9,5,9,90,270,0.5,0.4,left,0,['left'],[0.37842879999971046],760.4716005000002,760.7156642000002
10,5,10,270,90,0.4,0.4,right,0,['right'],[0.9184617000000799],761.7715069000003,762.0155566000001
11,5,11,270,90,0.2,0.9,right,0,['right'],[0.42539750000014465],763.0728258000001,763.3155508000002
12,5,12,270,90,0.4,0.5,right,0,['right'],[0.43035690000033355],764.3714800999999,764.6156618000002
13,5,13,90,270,0.5,0.4,left,0,['left'],[0.39544430000023567],765.6707617,765.9153248
14,5,14,270,270,0.4,0.4,no_target,0,[],[],766.9734229000003,767.2154787000002
15,5,15,90,270,0.2,0.9,left,0,[],[],768.2704104000002,768.5155572000001
16,5,16,90,270,0.4,0.5,left,0,['left'],[0.39021990000037476],769.5715406000002,769.8156512000003
17,5,17,270,270,0.4,0.5,no_target,0,[],[],770.8676765000002,771.1153793999999
18,5,18,90,270,0.5,0.4,left,0,['left'],[0.5184615999996822],772.1716752,772.4155065000002
19,5,19,270,90,0.4,0.4,right,0,['right'],[0.5073208999997405],773.4706340999999,773.7155565999999
20,5,20,90,270,0.2,0.9,left,0,[],[],774.7710631000002,775.0154379000003
21,5,21,270,270,0.5,0.5,no_target,0,[],[],776.0748900000001,776.3155029000002
22,5,22,270,270,0.4,0.4,no_target,0,[],[],777.3726325,777.6155065
23,5,23,90,270,0.2,0.9,left,0,['left'],[0.5056915999998637],778.6720103,778.9156315000002
24,5,24,90,270,0.2,0.9,left,0,[],[],779.9709983999999,780.2155942000002
25,5,25,270,270,0.2,0.9,no_target,0,[],[],781.2708496000002,781.5153897000002
26,5,26,90,270,0.4,0.4,left,0,['left'],[0.599633399999675],782.5704931000002,782.8156231
27,5,27,270,270,0.2,0.9,no_target,0,[],[],783.8723562000002,784.1155388
28,5,28,90,270,0.2,0.9,left,0,['left'],[0.42663579999998547],785.1673954,785.4154030000002
29,5,29,270,90,0.2,0.9,right,0,['right'],[0.4914075000001503],786.4708886000001,786.7157296000003
30,5,30,270,90,0.4,0.5,right,0,['right'],[0.3906685000001744],787.7712856,788.0154208000001
31,5,31,270,270,0.5,0.5,no_target,0,[],[],789.0713323000002,789.3157155000001
32,5,32,270,270,0.5,0.4,no_target,0,[],[],790.3726861000002,790.6156713000003
33,5,33,270,270,0.5,0.5,no_target,0,[],[],791.6721224,791.9154431
34,5,34,270,90,0.2,0.9,right,0,['right'],[0.41472029999977167],792.9713275000001,793.2154793000002
35,5,35,270,90,0.2,0.9,right,0,['right'],[0.5243298000000323],794.2699487000002,794.5156744000003
36,5,36,90,270,0.2,0.9,left,0,[],[],795.5716862000002,795.8156789000002
37,5,37,90,270,0.4,0.5,left,0,['left'],[0.4897267000001193],796.8722568000001,797.1157401000003
38,5,38,270,90,0.2,0.9,right,0,['right'],[0.5657509000002392],798.1721737,798.4154014000003
39,5,39,270,270,0.2,0.9,no_target,0,[],[],799.4710923,799.7156614000003
40,5,40,270,270,0.2,0.9,no_target,0,[],[],800.7697744,801.0151685000003
41,5,41,90,270,0.5,0.5,left,0,['left'],[0.8803992999996808],802.0737187000002,802.3153901000003
42,5,42,90,270,0.2,0.9,left,0,[],[],803.3714858000001,803.6156630000003
43,5,43,270,270,0.4,0.4,no_target,0,[],[],804.6684597999999,804.9154135000001
44,5,44,270,90,0.4,0.4,right,0,['right'],[0.5481694999998581],805.9736118000003,806.2153982000002
45,5,45,270,270,0.2,0.9,no_target,0,[],[],807.2721702000001,807.5156660999999
46,5,46,270,270,0.2,0.9,no_target,0,[],[],808.5729913000002,808.8154099000001
47,5,47,270,270,0.2,0.9,no_target,0,[],[],809.8721041000001,810.1155913
48,5,48,270,90,0.5,0.4,right,0,[],[],811.1724508,811.4155996000002
49,5,49,90,270,0.4,0.5,left,0,['left'],[0.5803648000000976],812.4696819000003,812.7153980999999
50,5,50,90,270,0.4,0.4,left,0,['left'],[0.4529757000000245],813.7734971000002,814.0155849
51,5,51,270,270,0.2,0.9,no_target,0,[],[],815.0703452,815.3154637
52,5,52,270,270,0.5,0.5,no_target,0,[],[],816.3692312000001,816.6155824
53,5,53,270,90,0.2,0.9,right,0,['right'],[0.3619337000000087],817.6721091000002,817.9151420999999
54,5,54,270,270,0.4,0.5,no_target,0,[],[],818.9720850000001,819.2155602
55,5,55,270,270,0.2,0.9,no_target,0,[],[],820.270393,820.5155720999999
56,5,56,270,90,0.4,0.5,right,0,['right'],[0.5453099000001203],821.5690508999999,821.8154526000001
57,5,57,270,90,0.2,0.9,right,0,['right'],[0.5151491999999962],822.8707661000001,823.1149088
58,5,58,270,270,0.2,0.9,no_target,0,[],[],824.1704015000003,824.4153073
59,5,59,270,90,0.2,0.9,right,0,['right'],[0.5625605999998697],825.4714501000001,825.7153185
60,5,60,270,90,0.4,0.5,right,0,[],[],826.7686825000003,827.0152881000001
61,5,61,270,270,0.4,0.4,no_target,0,[],[],828.069757,828.3154339
62,5,62,90,270,0.4,0.5,left,0,['left'],[0.4614861000000019],829.3723829000003,829.6153336
63,5,63,270,270,0.5,0.4,no_target,0,[],[],830.6677173,830.9157041000001
64,5,64,270,270,0.5,0.5,no_target,0,[],[],831.9707434,832.2154925000002
65,5,65,270,90,0.5,0.5,right,0,['right'],[0.6679503000000295],833.2701451,833.5155743000003
66,5,66,90,270,0.4,0.5,left,0,['left'],[0.8105563999997685],834.5754066000002,834.8155637000002
67,5,67,270,90,0.4,0.5,right,0,['right'],[0.41334710000000996],835.8692223999999,836.1149346
68,5,68,270,90,0.5,0.4,right,0,['right'],[0.4449216000002707],837.1733071000001,837.4149660999999
69,5,69,270,90,0.4,0.4,right,0,['right'],[0.44525860000021567],838.4686019000003,838.7154324999999
70,5,70,270,90,0.5,0.5,right,0,['right'],[0.4614489999999023],839.7723576999999,840.0154058999999
71,5,71,270,90,0.2,0.9,right,0,['right'],[0.3211666000001969],841.0727552000001,841.3154514
72,5,72,270,90,0.5,0.5,right,0,['right'],[0.5585404000003109],842.3715738000003,842.6154226000001
73,5,73,270,270,0.2,0.9,no_target,0,[],[],843.6703859000002,843.9154527000003
74,5,74,270,90,0.5,0.4,right,0,['right'],[0.5748595000000023],844.9712944999999,845.2147857000002
75,5,75,270,270,0.4,0.4,no_target,0,[],[],846.2714738000002,846.5153662999999
76,5,76,270,270,0.5,0.4,no_target,0,[],[],847.5728633000001,847.8154096000001
77,5,77,90,270,0.5,0.4,left,0,['left'],[0.44315610000012384],848.8707372000001,849.1154300000001
78,5,78,270,90,0.5,0.4,right,0,['right'],[0.3571036000003005],850.1730049,850.4153977000003
79,5,79,90,270,0.2,0.9,left,0,['left'],[0.5307240999995884],851.4711454000001,851.7154375000002
80,5,80,90,270,0.5,0.5,left,0,['left'],[0.5470367000002625],852.7672444000002,853.015553
81,5,81,270,270,0.2,0.9,no_target,0,[],[],854.0679656,854.3147976000002
82,5,82,270,90,0.5,0.4,right,0,['right'],[0.5824795000003178],855.3715776000001,855.6154189000001
83,5,83,90,270,0.2,0.9,left,0,[],[],856.6735240999999,856.9151067999999
84,5,84,270,270,0.5,0.4,no_target,0,['left'],[0.3735938999998325],857.9725682999999,858.2155699000002
85,5,85,270,90,0.2,0.9,right,0,['right'],[0.5153980000000047],859.2705701000002,859.5154588000003
86,5,86,90,270,0.2,0.9,left,0,[],[],860.5701713999999,860.8147417000002
87,5,87,270,90,0.2,0.9,right,0,['right'],[0.5234794999996666],861.8701109000001,862.1154629999999
88,5,88,90,270,0.2,0.9,left,0,['left'],[0.49830030000021],863.1675677000001,863.4149975000003
89,5,89,90,270,0.4,0.4,left,0,['left'],[0.562518899999759],864.4712999000001,864.7153485000001
90,5,90,270,270,0.4,0.5,no_target,0,[],[],865.7705065000002,866.0152368000001
91,5,91,270,90,0.5,0.5,right,0,['right'],[0.5403876000000309],867.0696988000002,867.3153986
92,5,92,270,90,0.2,0.9,right,0,['right'],[0.5814697000000706],868.3726076999999,868.6153168000003
93,5,93,270,270,0.4,0.5,no_target,0,[],[],869.6708606,869.9153976
94,5,94,90,270,0.5,0.5,left,0,['left'],[0.4014498999999887],870.9685437,871.2152419000001
95,5,95,90,270,0.4,0.4,left,0,['left'],[0.4200080999999045],872.2701056000003,872.5146476000002
96,5,96,90,270,0.5,0.4,left,0,['left'],[0.4703635000000759],873.5712159000002,873.8153308000003
97,5,97,270,90,0.4,0.4,right,0,['right'],[0.6577901000000566],874.8721376000001,875.1150643000003
98,5,98,90,270,0.2,0.9,left,0,[],[],876.1692189000003,876.4155913000002
0,6,0,270,90,0.4,0.4,right,0,[],[],887.7334496999999,887.9822473000002
1,6,1,90,270,0.4,0.5,left,0,[],[],889.0380175000003,889.2823252000001
2,6,2,90,270,0.5,0.5,left,0,['left'],[0.47290290000000823],890.3369720000003,890.5815418
3,6,3,270,90,0.4,0.5,right,0,['right'],[0.33821869999974297],891.6395734999999,891.8820671000001
4,6,4,90,270,0.4,0.4,left,0,['left'],[0.4717700999999579],892.9383837000003,893.1821649000001
5,6,5,270,270,0.2,0.9,no_target,0,[],[],894.2377883000001,894.4821656000001
6,6,6,270,90,0.4,0.4,right,0,['right'],[0.4314880000001722],895.5384105,895.7815221000003
7,6,7,270,90,0.5,0.4,right,0,[],[],896.8378552000001,897.0820650000003
8,6,8,90,270,0.2,0.9,left,0,[],[],898.1382138000001,898.3819251000002
9,6,9,90,270,0.2,0.9,left,0,['left'],[0.6047886999999719],899.4372598000002,899.6818971999999
10,6,10,270,270,0.2,0.9,no_target,0,['left'],[0.5850987000003443],900.7369254000002,900.982025
11,6,11,90,270,0.5,0.5,left,0,['left'],[0.39079969999966124],902.0350191,902.2822223000001
12,6,12,90,270,0.2,0.9,left,0,[],[],903.3405276999999,903.5822271
13,6,13,270,270,0.5,0.5,no_target,0,[],[],904.6367450999999,904.8818312000001
14,6,14,270,270,0.2,0.9,no_target,0,[],[],905.9376856000001,906.1821938
15,6,15,270,90,0.5,0.5,right,0,['right'],[0.5074233000000277],907.2383818999999,907.4817393000001
16,6,16,270,270,0.4,0.5,no_target,0,[],[],908.5389183,908.7822186000001
17,6,17,90,270,0.2,0.9,left,0,['left'],[0.46967080000013084],909.836067,910.0819604000001
18,6,18,270,90,0.2,0.9,right,0,['right'],[0.5945893000002798],911.1354486000002,911.3819372
19,6,19,270,270,0.5,0.4,no_target,0,[],[],912.4378277000003,912.6822364000002
20,6,20,270,90,0.5,0.4,right,0,[],[],913.7389653000002,913.9820192
21,6,21,90,270,0.5,0.4,left,0,['left'],[0.5510027999998783],915.0348257000003,915.2822199
22,6,22,270,270,0.5,0.5,no_target,0,[],[],916.338575,916.5818548
23,6,23,270,90,0.4,0.4,right,0,['right'],[0.46039010000004055],917.6376931000002,917.8822075
24,6,24,270,270,0.4,0.5,no_target,0,[],[],918.9358841000001,919.1818304000001
25,6,25,270,270,0.2,0.9,no_target,0,[],[],920.2372462999999,920.4815983999999
26,6,26,270,90,0.2,0.9,right,0,[],[],921.5380339999999,921.7815169000003
27,6,27,270,90,0.5,0.5,right,0,[],[],922.8415694000003,923.0819100000001
28,6,28,90,270,0.2,0.9,left,0,['left'],[0.46390569999994113],924.1377299000003,924.3820413999999
29,6,29,270,270,0.5,0.4,no_target,0,[],[],925.441122,925.6820877000002
30,6,30,270,90,0.2,0.9,right,0,['right'],[0.5100683000000572],926.7396015000002,926.9820191000001
31,6,31,270,90,0.2,0.9,right,0,[],[],928.0389101000003,928.2812180000003
32,6,32,270,90,0.2,0.9,right,0,['right'],[0.4422381000003952],929.3356319000002,929.5820744
33,6,33,270,270,0.2,0.9,no_target,0,[],[],930.638314,930.8819257000002
34,6,34,270,270,0.5,0.4,no_target,0,[],[],931.9368261000002,932.1820410000003
35,6,35,90,270,0.2,0.9,left,0,['right'],[0.4600321000002623],933.2381416000001,933.4819647000002
36,6,36,270,90,0.2,0.9,right,0,['right'],[0.4490469000002122],934.5369100999999,934.7814301000001
37,6,37,270,90,0.4,0.5,right,0,['right'],[0.522164900000007],935.8396972000003,936.0820987
38,6,38,270,270,0.4,0.4,no_target,0,[],[],937.1371975,937.3818991
39,6,39,270,270,0.4,0.5,no_target,0,[],[],938.4417526,938.6818129999999
40,6,40,90,270,0.2,0.9,left,0,[],[],939.7370650999999,939.9815356000001
41,6,41,90,270,0.4,0.4,left,0,['left'],[0.3720241000000897],941.0377845,941.2814897999999
42,6,42,270,270,0.2,0.9,no_target,0,[],[],942.3394865000002,942.5820630999999
43,6,43,270,90,0.2,0.9,right,0,[],[],943.6370359,943.8813115999999
44,6,44,90,270,0.2,0.9,left,0,[],[],944.9377744999999,945.1819271000002
45,6,45,270,90,0.2,0.9,right,0,['right'],[0.5304255999999441],946.2395337,946.4819286
46,6,46,270,270,0.5,0.4,no_target,0,['left'],[0.39786659999981566],947.5401150999999,947.7819153000003
47,6,47,270,90,0.5,0.5,right,0,['right'],[0.4357033000001138],948.8382792,949.0816170999999
48,6,48,270,270,0.2,0.9,no_target,0,[],[],950.1416759000001,950.3821089999999
49,6,49,270,270,0.2,0.9,no_target,0,[],[],951.4391676000002,951.6821777000002
50,6,50,90,270,0.2,0.9,left,0,['left'],[0.6400720999999976],952.7377538000003,952.9819390999999
51,6,51,270,270,0.4,0.4,no_target,0,[],[],954.0404380000002,954.2819962000001
52,6,52,270,90,0.4,0.4,right,0,['right'],[0.5038039000000936],955.3379382999999,955.5812384000003
53,6,53,270,270,0.5,0.5,no_target,0,[],[],956.6382891999999,956.8815668
54,6,54,270,270,0.5,0.5,no_target,0,[],[],957.9381040999999,958.1818363
55,6,55,90,270,0.4,0.5,left,0,['left'],[0.4521875000000364],959.2378354,959.4818634000001
56,6,56,270,270,0.5,0.5,no_target,0,[],[],960.5391665,960.7819749000003
57,6,57,90,270,0.4,0.4,left,0,['left'],[0.46881600000006074],961.8371374999999,962.0819865000001
58,6,58,270,270,0.4,0.5,no_target,0,['left'],[0.5837234000000535],963.1379058,963.3821595000002
59,6,59,270,90,0.5,0.5,right,0,['right'],[0.5285774999997557],964.4333058,964.6819989000003
60,6,60,270,90,0.5,0.4,right,0,[],[],965.7391502000003,965.9818624000002
61,6,61,270,270,0.2,0.9,no_target,0,[],[],967.0366614000002,967.2819037000002
62,6,62,270,90,0.2,0.9,right,0,['right'],[0.4396185000000514],968.3379146,968.5816569000001
63,6,63,270,270,0.4,0.4,no_target,0,[],[],969.6389408000002,969.8812203
64,6,64,270,270,0.4,0.5,no_target,0,['right'],[0.5040334000000257],970.9379102999999,971.1818672000002
65,6,65,270,90,0.4,0.5,right,0,['right'],[0.5473007000000507],972.2384242,972.4819834000002
66,6,66,90,270,0.5,0.4,left,0,['left'],[0.4196167999998579],973.5342624000002,973.7818972000002
67,6,67,270,90,0.4,0.5,right,0,['right'],[0.3885240999998132],974.8374184000002,975.0820403999999
68,6,68,90,270,0.4,0.4,left,0,['left'],[0.368393499999911],976.1376320000002,976.3818507000003
69,6,69,270,270,0.4,0.4,no_target,0,[],[],977.4374981000003,977.6816684000003
70,6,70,90,270,0.4,0.5,left,0,['left'],[0.5678374000003714],978.7380816000002,978.9819168000001
71,6,71,270,90,0.5,0.5,right,0,['right'],[0.4528199000001223],980.0371425000001,980.2822492000003
72,6,72,90,270,0.2,0.9,left,0,[],[],981.3375197000003,981.5819629
73,6,73,90,270,0.4,0.4,left,0,[],[],982.6343967,982.8820388000001
74,6,74,90,270,0.5,0.5,left,0,['left'],[0.47054819999993924],983.9395058000002,984.1820531999999
75,6,75,270,90,0.2,0.9,right,0,['right'],[0.4592769999999291],985.238846,985.4818616
76,6,76,270,90,0.4,0.4,right,0,[],[],986.5375227000002,986.7820503
77,6,77,90,270,0.5,0.4,left,0,['left'],[0.42151990000002115],987.8363996999999,988.0818196000002
78,6,78,270,90,0.2,0.9,right,0,['right'],[0.5779322999997021],989.1357479999999,989.3818790000003
79,6,79,270,270,0.2,0.9,no_target,0,[],[],990.4386480000001,990.6820420000001
80,6,80,270,90,0.2,0.9,right,0,['right'],[0.3629587000000356],991.7347497000003,991.9815589000002
81,6,81,90,270,0.5,0.4,left,0,['left'],[0.46731599999975515],993.0387200000002,993.2819221000002
82,6,82,90,270,0.2,0.9,left,0,['right'],[0.4782463999999891],994.3394516000001,994.5819171999999
83,6,83,270,270,0.2,0.9,no_target,0,['right'],[0.5796655000003739],995.6380737000002,995.8819206000001
84,6,84,90,270,0.5,0.4,left,0,['left'],[0.7264961999999286],996.9392011000002,997.1818363
85,6,85,270,270,0.2,0.9,no_target,0,[],[],998.2390278,998.4817212
86,6,86,270,90,0.5,0.4,right,0,[],[],999.5379915000001,999.7816374000001
87,6,87,270,90,0.5,0.4,right,0,['right'],[0.4240853999999672],1000.8413252000003,1001.0819354000002
88,6,88,270,90,0.2,0.9,right,0,['right'],[0.5282781999999315],1002.1379223000001,1002.3819086999999
89,6,89,90,270,0.2,0.9,left,0,['left'],[0.6038251999998465],1003.4381676,1003.6819032000001
90,6,90,270,270,0.5,0.4,no_target,0,[],[],1004.7392695000001,1004.9818862
91,6,91,90,270,0.2,0.9,left,0,[],[],1006.0386833,1006.2818815000003
92,6,92,90,270,0.5,0.5,left,0,['left'],[0.4593780999998671],1007.3345409000001,1007.5819365
93,6,93,90,270,0.5,0.5,left,0,['left'],[0.41921019999972486],1008.6387219000001,1008.8818886000001
94,6,94,270,270,0.2,0.9,no_target,0,[],[],1009.9337732000001,1010.1820685
95,6,95,270,270,0.4,0.4,no_target,0,[],[],1011.2388764,1011.4818754
96,6,96,90,270,0.4,0.5,left,0,['left'],[0.5982390999997733],1012.5397806000003,1012.7819811000002
97,6,97,90,270,0.4,0.5,left,0,['left'],[0.4993312000001424],1013.8381145000001,1014.0819877000001
98,6,98,270,90,0.4,0.5,right,0,['right'],[0.6004178000002867],1015.1375496000003,1015.3818411
0,7,0,270,90,0.2,0.9,right,0,[],[],1042.2164029000003,1042.4652555999999
1,7,1,270,90,0.4,0.4,right,0,[],[],1043.5214472999999,1043.7650939000002
2,7,2,270,90,0.2,0.9,right,0,['right'],[0.3894220999995923],1044.8205447000003,1045.065112
3,7,3,270,270,0.5,0.5,no_target,0,[],[],1046.1211903,1046.3654004000002
4,7,4,90,270,0.2,0.9,left,0,['right'],[0.4354754999999386],1047.4224143,1047.6649684000001
5,7,5,270,90,0.5,0.4,right,0,['right'],[0.7363513999998759],1048.7215529000002,1048.9652555
6,7,6,90,270,0.4,0.4,left,0,['left'],[0.4291222000001653],1050.0205756000003,1050.2650094000003
7,7,7,90,270,0.2,0.9,left,0,[],[],1051.3218284000002,1051.5649162000002
8,7,8,270,90,0.4,0.4,right,0,['left'],[0.4762234999998327],1052.6218612999999,1052.8647703
9,7,9,90,270,0.5,0.4,left,0,['left'],[0.40813570000000254],1053.9218362,1054.1651953000003
10,7,10,270,90,0.2,0.9,right,0,['right'],[0.31054089999997814],1055.2194133,1055.4645938
11,7,11,270,90,0.4,0.5,right,0,[],[],1056.5206309000002,1056.7651311000002
12,7,12,270,90,0.5,0.5,right,0,['right'],[0.3734223000001293],1057.8202742,1058.0651235000003
13,7,13,90,270,0.2,0.9,left,0,['left'],[0.36048769999979413],1059.1211614000001,1059.3652241000002
14,7,14,270,90,0.5,0.4,right,0,['right'],[0.3235030999999253],1060.4223828000002,1060.6652551
15,7,15,270,270,0.5,0.5,no_target,0,[],[],1061.7230824,1061.9652185000002
16,7,16,90,270,0.4,0.5,left,0,['left'],[0.36612379999996847],1063.0196130000002,1063.2651360000002
17,7,17,270,270,0.2,0.9,no_target,0,[],[],1064.3212343000002,1064.5646295
18,7,18,270,90,0.5,0.5,right,0,['right'],[0.7602811000001566],1065.6175063000003,1065.8646144000002
19,7,19,270,270,0.4,0.5,no_target,0,[],[],1066.9215118,1067.1645759
20,7,20,90,270,0.4,0.4,left,0,['left'],[0.42033119999996416],1068.2216109000003,1068.4652044000002
21,7,21,90,270,0.4,0.4,left,0,[],[],1069.5210487000002,1069.7651491
22,7,22,270,90,0.2,0.9,right,0,['right'],[0.4993279000000257],1070.8224815,1071.0653618
23,7,23,90,270,0.5,0.5,left,0,['left'],[0.4903886000001876],1072.1194603000001,1072.3650284000003
24,7,24,270,270,0.5,0.4,no_target,0,[],[],1073.4216281000001,1073.6651368
25,7,25,270,90,0.4,0.5,right,0,['right'],[0.4476126999998087],1074.7218453000003,1074.9650515
26,7,26,90,270,0.2,0.9,left,0,[],[],1076.0219534,1076.2645294000001
27,7,27,270,90,0.5,0.5,right,0,['right'],[0.3614564999998038],1077.3205234,1077.5649394
28,7,28,270,90,0.4,0.5,right,0,['right'],[0.4430558000003657],1078.6227665,1078.8651775
29,7,29,90,270,0.5,0.5,left,0,['left'],[0.43251909999980853],1079.921341,1080.1651322
30,7,30,270,270,0.4,0.4,no_target,0,[],[],1081.2217731000003,1081.4648079
31,7,31,90,270,0.2,0.9,left,0,['right'],[0.5842575000001489],1082.5216321999999,1082.7650717
32,7,32,270,270,0.4,0.4,no_target,0,[],[],1083.8224542,1084.0646693
33,7,33,270,90,0.4,0.4,right,0,['right'],[0.6414785999995729],1085.1201510000003,1085.3647728000003
34,7,34,270,90,0.4,0.4,right,0,[],[],1086.4221571,1086.6651171
35,7,35,270,270,0.2,0.9,no_target,0,[],[],1087.7201445000003,1087.9651419
36,7,36,270,270,0.2,0.9,no_target,0,[],[],1089.0210518000001,1089.2651609000002
37,7,37,90,270,0.5,0.5,left,0,['left'],[0.34479570000030435],1090.3208932,1090.5651051000002
38,7,38,270,90,0.2,0.9,right,0,['right'],[0.41147330000012516],1091.6219992,1091.8650989
39,7,39,270,270,0.4,0.4,no_target,0,[],[],1092.9208456,1093.1646626
40,7,40,270,270,0.2,0.9,no_target,0,[],[],1094.2214772,1094.4649307000002
41,7,41,270,270,0.2,0.9,no_target,0,[],[],1095.5215648,1095.7651378000003
42,7,42,270,90,0.4,0.5,right,0,['right'],[0.5968158999999105],1096.8206516000002,1097.0651955
43,7,43,270,270,0.2,0.9,no_target,0,[],[],1098.1219113,1098.3651350000002
44,7,44,90,270,0.2,0.9,left,0,[],[],1099.4217388,1099.6647527000002
45,7,45,90,270,0.4,0.5,left,0,['left'],[0.5030320000000756],1100.7226707000002,1100.9650852000002
46,7,46,270,270,0.5,0.4,no_target,0,[],[],1102.0207158,1102.2648815
47,7,47,270,270,0.2,0.9,no_target,0,[],[],1103.3216696000002,1103.564243
48,7,48,90,270,0.5,0.4,left,0,[],[],1104.6201863,1104.8644976000003
49,7,49,270,90,0.2,0.9,right,0,['right'],[0.5037328999997044],1105.9220987,1106.1650465
50,7,50,270,90,0.5,0.4,right,0,['right'],[0.8365957999999409],1107.2211467,1107.4650982
51,7,51,270,270,0.5,0.5,no_target,0,[],[],1108.5208744,1108.7649803000002
52,7,52,270,90,0.2,0.9,right,0,['right'],[0.3953302999998414],1109.8221285000002,1110.0652552
53,7,53,90,270,0.4,0.5,left,0,['left'],[0.49794950000023164],1111.1195331000001,1111.3650384
54,7,54,270,90,0.2,0.9,right,0,['right'],[0.3959317999997438],1112.4213738,1112.6646092000003
55,7,55,90,270,0.2,0.9,left,0,['left'],[0.5407301000000189],1113.7170772000002,1113.9652444
56,7,56,90,270,0.4,0.4,left,0,['left'],[0.5482922999999573],1115.0214238,1115.2652166
57,7,57,90,270,0.4,0.5,left,0,[],[],1116.3166347,1116.5650904000001
58,7,58,270,90,0.2,0.9,right,0,['right'],[0.45272179999983564],1117.6210849000001,1117.8644606
59,7,59,90,270,0.2,0.9,left,0,['right'],[0.4322132000002057],1118.9215363,1119.1650287
60,7,60,90,270,0.5,0.4,left,0,['left'],[0.4278492000003098],1120.2216199000002,1120.4652706
61,7,61,270,90,0.2,0.9,right,0,['right'],[0.5164514000002782],1121.5252922000002,1121.765095
62,7,62,270,270,0.2,0.9,no_target,0,[],[],1122.8233870000001,1123.0650549
63,7,63,270,90,0.2,0.9,right,0,['right'],[0.5961336000000301],1124.1175966000003,1124.3647821000002
64,7,64,270,90,0.2,0.9,right,0,['right'],[0.540411199999653],1125.4210439,1125.6651998
65,7,65,270,270,0.4,0.5,no_target,0,[],[],1126.7223139999999,1126.9650746
66,7,66,270,270,0.2,0.9,no_target,0,[],[],1128.0221632,1128.2652613000002
67,7,67,270,90,0.4,0.5,right,0,['right'],[0.48052659999984826],1129.3210914,1129.5652063
68,7,68,270,270,0.5,0.5,no_target,0,[],[],1130.6233286,1130.865015
69,7,69,90,270,0.5,0.4,left,0,['left'],[0.456438000000162],1131.9210437,1132.1647836
70,7,70,90,270,0.2,0.9,left,0,[],[],1133.2210491000003,1133.4651784999999
71,7,71,90,270,0.5,0.5,left,0,['left'],[0.4239676000001964],1134.5217634000003,1134.7649869
72,7,72,270,270,0.2,0.9,no_target,0,[],[],1135.8213448,1136.0644856000001
73,7,73,270,270,0.5,0.4,no_target,0,[],[],1137.1213656000002,1137.3650819000002
74,7,74,90,270,0.2,0.9,left,0,['left'],[0.7252670000002581],1138.4204131,1138.6645232000003
75,7,75,270,90,0.5,0.5,right,0,['right'],[0.5293392000003223],1139.7202356999999,1139.9648270999999
76,7,76,90,270,0.5,0.4,left,0,['left'],[0.6364628999999695],1141.0213325000002,1141.2651795
77,7,77,270,270,0.4,0.5,no_target,0,[],[],1142.3204925000002,1142.5649609
78,7,78,270,90,0.5,0.4,right,0,['right'],[0.4590726999999788],1143.6225474999999,1143.8652861000003
79,7,79,270,270,0.2,0.9,no_target,0,[],[],1144.9250086,1145.1648510000002
80,7,80,270,270,0.4,0.5,no_target,0,['right'],[0.4608699999998862],1146.2208131,1146.4649236000002
81,7,81,270,270,0.2,0.9,no_target,0,[],[],1147.5202705,1147.7652062
82,7,82,270,270,0.2,0.9,no_target,0,[],[],1148.822593,1149.0650078
83,7,83,90,270,0.2,0.9,left,0,[],[],1150.1202258,1150.3648227
84,7,84,270,270,0.4,0.5,no_target,0,[],[],1151.4206861,1151.6652291000003
85,7,85,270,270,0.4,0.4,no_target,0,[],[],1152.7207903,1152.9651908000003
86,7,86,90,270,0.4,0.5,left,0,['left'],[0.6048228999998173],1154.0209282000003,1154.2650035
87,7,87,90,270,0.2,0.9,left,0,['right'],[0.5611795999998321],1155.3205936000002,1155.5649850000002
88,7,88,90,270,0.5,0.5,left,0,['left'],[0.5492208999999093],1156.6203859,1156.8651444
89,7,89,270,270,0.5,0.4,no_target,0,[],[],1157.9199272000003,1158.1650409000001
90,7,90,270,90,0.4,0.4,right,0,['right'],[0.4191374000001815],1159.2226026,1159.4651757
91,7,91,90,270,0.4,0.4,left,0,['left'],[0.4690184000000954],1160.5167086,1160.765217
92,7,92,270,270,0.5,0.5,no_target,0,[],[],1161.8227,1162.0645994
93,7,93,270,270,0.4,0.4,no_target,0,[],[],1163.1207496,1163.3650049999999
94,7,94,270,90,0.5,0.5,right,0,['right'],[0.48146390000010797],1164.4163551,1164.665116
95,7,95,90,270,0.2,0.9,left,0,[],[],1165.720391,1165.9652651
96,7,96,270,90,0.2,0.9,right,0,['right'],[0.4055823000003329],1167.0200299,1167.2649025000003
97,7,97,270,270,0.5,0.4,no_target,0,[],[],1168.3223128000002,1168.5647682000001
98,7,98,270,90,0.5,0.4,right,0,['right'],[0.5169741000004251],1169.6204759,1169.8652073
0,8,0,90,270,0.2,0.9,left,0,[],[],1222.6159297000002,1222.8647831
1,8,1,90,270,0.5,0.4,left,0,['left'],[0.49712589999990087],1223.9202152,1224.1648078
2,8,2,90,270,0.5,0.4,left,0,['left'],[0.41541479999978037],1225.2180289,1225.4649797
3,8,3,270,270,0.2,0.9,no_target,0,[],[],1226.5193966,1226.7648185
4,8,4,270,270,0.5,0.5,no_target,0,[],[],1227.8199841000003,1228.0650027
5,8,5,270,270,0.5,0.5,no_target,0,[],[],1229.1182175000001,1229.3647368
6,8,6,90,270,0.2,0.9,left,0,['left'],[0.5636817999998129],1230.4218336000001,1230.6649801
7,8,7,90,270,0.4,0.5,left,0,['left'],[0.5537858999996388],1231.7195007000003,1231.9642322000002
8,8,8,270,90,0.2,0.9,right,0,['right'],[0.4450600999998642],1233.0203682,1233.2649290000002
9,8,9,270,90,0.2,0.9,right,0,['right'],[0.4564477000003535],1234.3210500000002,1234.5649852
10,8,10,270,270,0.5,0.4,no_target,0,[],[],1235.6195073000001,1235.8651313000003
11,8,11,270,90,0.2,0.9,right,0,['right'],[0.3697157999999945],1236.9199624999999,1237.1650539
12,8,12,270,270,0.4,0.4,no_target,0,[],[],1238.2201612000001,1238.4647498000002
13,8,13,270,90,0.4,0.4,right,0,['right'],[0.3526615999999194],1239.5209230000003,1239.7645807000001
14,8,14,270,90,0.5,0.5,right,0,['right'],[0.4529581000001599],1240.8202742,1241.06478
15,8,15,270,270,0.2,0.9,no_target,0,[],[],1242.1214314000001,1242.3651244
16,8,16,90,270,0.2,0.9,left,0,[],[],1243.4170950999999,1243.6647436
17,8,17,270,90,0.2,0.9,right,0,['right'],[0.24819810000008147],1244.7213853,1244.9649277
18,8,18,270,90,0.5,0.5,right,0,['right'],[0.31676070000003165],1246.0208257000002,1246.2651359
19,8,19,270,90,0.4,0.5,right,0,['right'],[0.3631596999998692],1247.3183367,1247.565006
20,8,20,270,90,0.5,0.5,right,0,['right'],[0.3881640999998126],1248.6214212000002,1248.8650171000002
21,8,21,90,270,0.5,0.4,left,0,['left'],[0.45716600000014296],1249.9203921,1250.1648468
22,8,22,90,270,0.4,0.5,left,0,['left'],[0.4744111999998495],1251.2231766000002,1251.4648915
23,8,23,90,270,0.2,0.9,left,0,['right'],[0.4574907000001076],1252.5201785000002,1252.764923
24,8,24,270,270,0.2,0.9,no_target,0,[],[],1253.8220423999999,1254.0650395999999
25,8,25,90,270,0.2,0.9,left,0,[],[],1255.1201859,1255.3650264
26,8,26,270,270,0.5,0.4,no_target,0,[],[],1256.4192504,1256.6646531
27,8,27,90,270,0.2,0.9,left,0,[],[],1257.7216769,1257.9651046000001
28,8,28,270,90,0.2,0.9,right,0,['right'],[0.5324706000001243],1259.0207805000002,1259.2647934
29,8,29,90,270,0.5,0.4,left,0,['left'],[0.46318799999971816],1260.3223185,1260.5649193000002
30,8,30,270,270,0.2,0.9,no_target,0,[],[],1261.6221561,1261.8650463000001
31,8,31,90,270,0.4,0.4,left,0,['left'],[0.5124145999998291],1262.9209987000002,1263.1650401
32,8,32,270,270,0.4,0.5,no_target,0,[],[],1264.2209138,1264.4649155
33,8,33,270,270,0.4,0.5,no_target,0,[],[],1265.5199094000002,1265.7644447
34,8,34,90,270,0.2,0.9,left,0,['left'],[0.7631547000000865],1266.8223381,1267.0644961
35,8,35,270,270,0.4,0.4,no_target,0,[],[],1268.1205158999999,1268.3649027
36,8,36,270,270,0.4,0.4,no_target,0,['left'],[0.16133650000028865],1269.4161875000002,1269.6645146000003
37,8,37,90,270,0.2,0.9,left,0,['left'],[0.5924165000001267],1270.7211081000003,1270.9648209
38,8,38,270,270,0.2,0.9,no_target,0,[],[],1272.0201220000001,1272.2649170000002
39,8,39,270,90,0.4,0.5,right,0,['right'],[0.7451081999997768],1273.3203722,1273.5643847
40,8,40,90,270,0.5,0.5,left,0,['left'],[0.35692599999993035],1274.6205777000002,1274.8648578
41,8,41,90,270,0.4,0.4,left,0,['left'],[0.5215754999999263],1275.9199477,1276.1650511
42,8,42,270,270,0.2,0.9,no_target,0,[],[],1277.2215504000003,1277.4648316999999
43,8,43,270,90,0.5,0.4,right,0,['right'],[0.39374769999994896],1278.5197268,1278.7647918999999
44,8,44,270,270,0.5,0.5,no_target,0,[],[],1279.8206502,1280.06485
45,8,45,270,90,0.5,0.5,right,0,['right'],[0.7354523999997582],1281.1217919000003,1281.3640954
46,8,46,270,270,0.2,0.9,no_target,0,[],[],1282.4212981000003,1282.6647988000002
47,8,47,90,270,0.2,0.9,left,0,['left'],[0.5522987999997895],1283.7213965000003,1283.9641835
48,8,48,90,270,0.5,0.5,left,0,['left'],[0.42798350000020946],1285.0210720000002,1285.2649858000002
49,8,49,270,270,0.4,0.5,no_target,0,[],[],1286.3201267000002,1286.5646686000002
50,8,50,90,270,0.5,0.5,left,0,['left'],[0.47776429999976244],1287.619896,1287.864726
51,8,51,270,270,0.2,0.9,no_target,0,[],[],1288.9217242000002,1289.1649766000003
52,8,52,270,90,0.2,0.9,right,0,['right'],[0.4525997999999163],1290.2208524,1290.4649444
53,8,53,90,270,0.4,0.4,left,0,['left'],[0.6810669999999845],1291.5203086,1291.7645199
54,8,54,270,90,0.5,0.4,right,0,['right'],[0.4210855999999694],1292.8204738000002,1293.0648531
55,8,55,90,270,0.5,0.5,left,0,['left'],[0.3866287000000739],1294.1188686000003,1294.3648695
56,8,56,270,270,0.4,0.5,no_target,0,[],[],1295.4215483,1295.6644925000003
57,8,57,270,90,0.2,0.9,right,0,['right'],[0.6025373000002219],1296.718744,1296.9650715999999
58,8,58,270,90,0.4,0.5,right,0,[],[],1298.0226020000002,1298.2646508999999
59,8,59,270,90,0.4,0.4,right,0,['right'],[0.5020110999998906],1299.3236,1299.5649899000002
60,8,60,270,270,0.4,0.4,no_target,0,[],[],1300.6199131,1300.8644931000001
61,8,61,90,270,0.5,0.5,left,0,['left'],[0.42592070000000604],1301.9196642,1302.1646143
62,8,62,270,270,0.2,0.9,no_target,0,[],[],1303.2210160000002,1303.4648173000003
63,8,63,90,270,0.4,0.5,left,0,['left'],[0.46355979999998453],1304.5218633000002,1304.7646834
64,8,64,270,270,0.2,0.9,no_target,0,[],[],1305.8230247,1306.0647993
65,8,65,90,270,0.4,0.4,left,0,['left'],[0.34557219999987865],1307.1199408,1307.3646524000003
66,8,66,270,270,0.5,0.4,no_target,0,[],[],1308.4204372000002,1308.6643581
67,8,67,270,270,0.2,0.9,no_target,0,[],[],1309.7215205,1309.9644700000001
68,8,68,270,90,0.4,0.4,right,0,['right'],[0.45173879999993005],1311.0218799000002,1311.2648532
69,8,69,270,270,0.2,0.9,no_target,0,[],[],1312.3221356000001,1312.5648635
70,8,70,90,270,0.2,0.9,left,0,['left'],[0.437232899999799],1313.6201372000003,1313.8648317
71,8,71,270,270,0.5,0.5,no_target,0,[],[],1314.9205577999999,1315.1648228000001
72,8,72,270,270,0.4,0.5,no_target,0,[],[],1316.2196365000002,1316.4647244999999
73,8,73,270,270,0.5,0.4,no_target,0,[],[],1317.5220144000002,1317.7648304000002
74,8,74,270,90,0.5,0.4,right,0,['right'],[0.5869674999999006],1318.8225682,1319.0649422
75,8,75,90,270,0.4,0.5,left,0,['left'],[0.4254337000002124],1320.1201845000003,1320.3648302
76,8,76,90,270,0.2,0.9,left,0,[],[],1321.4221025,1321.6647497000001
77,8,77,270,90,0.5,0.5,right,0,[],[],1322.7203113000003,1322.9646951000002
78,8,78,270,90,0.2,0.9,right,0,['right'],[0.2999643000002834],1324.0214517000002,1324.2647946
79,8,79,270,90,0.4,0.4,right,0,"['left', 'right']","[0.4087018000000171, 1.0884785999996893]",1325.3210386000003,1325.564772
80,8,80,270,90,0.4,0.5,right,0,['right'],[0.5250153000001774],1326.6205066,1326.8646651000001
81,8,81,270,90,0.2,0.9,right,0,['right'],[0.32755560000032347],1327.9217603,1328.1639765000002
82,8,82,270,90,0.4,0.5,right,0,['right'],[0.39176240000006146],1329.217738,1329.4649539
83,8,83,270,90,0.5,0.4,right,0,['right'],[0.4586280000003171],1330.5186281,1330.7648399000002
84,8,84,90,270,0.5,0.4,left,0,['left'],[0.8288926999998694],1331.8203445000001,1332.0639707000003
85,8,85,270,90,0.2,0.9,right,0,['right'],[0.4004563999997117],1333.1209924000002,1333.3645286000003
86,8,86,270,90,0.5,0.4,right,0,['right'],[0.49471159999984593],1334.4189114000003,1334.6642371
87,8,87,270,270,0.5,0.5,no_target,0,[],[],1335.7206784000002,1335.9649357
88,8,88,90,270,0.2,0.9,left,0,['left'],[0.4055708999999297],1337.0199549000001,1337.2645717000003
89,8,89,270,270,0.5,0.4,no_target,0,[],[],1338.3187739000002,1338.5647270000002
90,8,90,270,90,0.2,0.9,right,0,['right'],[0.34762469999986934],1339.6214883,1339.8639117999999
91,8,91,270,90,0.2,0.9,right,0,[],[],1340.9189162999999,1341.164685
92,8,92,270,270,0.4,0.4,no_target,0,[],[],1342.2214609,1342.4644326
93,8,93,270,270,0.2,0.9,no_target,0,[],[],1343.5215887000002,1343.7642403000002
94,8,94,90,270,0.2,0.9,left,0,['left'],[0.5981959000000643],1344.8191325,1345.0648154000003
95,8,95,90,270,0.4,0.5,left,0,['left'],[0.3855562000003374],1346.1198028000001,1346.3641569
96,8,96,270,90,0.4,0.4,right,0,[],[],1347.4160625000002,1347.6647779000002
97,8,97,270,90,0.2,0.9,right,0,['right'],[0.3441549999997733],1348.7210699,1348.9648061999999
98,8,98,90,270,0.4,0.4,left,0,['left'],[0.46058699999957753],1350.0209289000002,1350.2647171
