row_id,block,trial,ori_left,ori_right,coherence_left,coherence_right,correct_response,condition,key_resp,key_resp.rt,stim_onset_time,stim_offset_time
0,0,0,270,90,0.2,0.9,right,0,[],[],65.95081949979067,66.19950040057302
1,0,1,270,90,0.5,0.5,right,0,[],[],67.26974369958043,67.49959719926119
2,0,2,90,270,0.4,0.4,left,0,['left'],[0.5015150997787714],68.55546659976244,68.79982770048082
3,0,3,90,270,0.5,0.5,left,0,['left'],[0.5373525992035866],69.85563479922712,70.09931219927967
4,0,4,90,270,0.2,0.9,left,0,['right'],[0.6493225004523993],71.15179870091379,71.39969260059297
5,0,5,90,270,0.5,0.5,left,0,['left'],[0.6711138002574444],72.45816319994628,72.6998100001365
6,0,6,270,270,0.2,0.9,no_target,0,[],[],73.75690379925072,73.99895380064845
7,0,7,270,270,0.4,0.5,no_target,0,[],[],75.05176220089197,75.2996216993779
8,0,8,270,270,0.5,0.4,no_target,0,[],[],76.35459480062127,76.59892519935966
9,0,9,90,270,0.5,0.4,left,0,['left'],[0.4197858013212681],77.65314929932356,77.89963630028069
10,0,10,270,90,0.4,0.4,right,0,['right'],[0.4398762993514538],78.95346770063043,79.19960249960423
11,0,11,270,90,0.2,0.9,right,0,['right'],[0.6377262007445097],80.2595575004816,80.4993811994791
12,0,12,270,90,0.4,0.5,right,0,['right'],[0.8625156991183758],81.55446409992874,81.79932530038059
13,0,13,90,270,0.5,0.4,left,0,['left'],[0.4963143989443779],82.85670639947057,83.09930820018053
14,0,14,270,270,0.4,0.4,no_target,0,[],[],84.15731500089169,84.39940340071917
15,0,15,90,270,0.2,0.9,left,0,['left'],[0.47312939912080765],85.45615020021796,85.69977050088346
16,0,16,90,270,0.4,0.5,left,0,['left'],[0.6911161001771688],86.75830969959497,86.99953580088913
17,0,17,270,270,0.4,0.5,no_target,0,[],[],88.05666759982705,88.29977899976075
18,0,18,90,270,0.5,0.4,left,0,['left'],[0.5000320002436638],89.35696719959378,89.59979630075395
19,0,19,270,90,0.4,0.4,right,0,['right'],[0.4728447999805212],90.65608439967036,90.89956369996071
20,0,20,90,270,0.2,0.9,left,0,['left'],[0.46585410088300705],91.95125520043075,92.19974750094116
21,0,21,270,270,0.5,0.5,no_target,0,[],[],93.25637550093234,93.4995658993721
22,0,22,270,270,0.4,0.4,no_target,0,[],[],94.55594160035253,94.79930560104549
23,0,23,90,270,0.2,0.9,left,0,['left'],[0.4428033009171486],95.85454189963639,96.09904680028558
24,0,24,90,270,0.2,0.9,left,0,[],[],97.1565224006772,97.39961780048907
25,0,25,270,270,0.2,0.9,no_target,0,[],[],98.45688410103321,98.69915509968996
26,0,26,90,270,0.4,0.4,left,0,['left'],[0.4218385014683008],99.75532989948988,99.99957320094109
27,0,27,270,270,0.2,0.9,no_target,0,[],[],101.05583659932017,101.29951339960098
28,0,28,90,270,0.2,0.9,left,0,[],[],102.35526040010154,102.59963119961321
29,0,29,270,90,0.2,0.9,right,0,['right'],[0.371026199311018],103.65395100042224,103.89954490028322
30,0,30,270,90,0.4,0.5,right,0,['right'],[0.7319658994674683],104.95719950087368,105.19959880039096
31,0,31,270,270,0.5,0.5,no_target,0,[],[],106.25541619956493,106.49928070046008
32,0,32,270,270,0.5,0.4,no_target,0,[],[],107.55671690031886,107.7994820997119
33,0,33,270,270,0.5,0.5,no_target,0,[],[],108.85855210013688,109.09909619949758
34,0,34,270,90,0.2,0.9,right,0,"['left', 'right']","[0.4361234996467829, 0.6761620007455349]",110.15701759979129,110.39979719929397
35,0,35,270,90,0.2,0.9,right,0,['right'],[0.49036349914968014],111.45457370020449,111.69963259994984
36,0,36,90,270,0.2,0.9,left,0,['left'],[0.924414899200201],112.75667460076511,112.99959309957922
37,0,37,90,270,0.4,0.5,left,0,['left'],[0.7928225994110107],114.05599440075457,114.2998284008354
38,0,38,270,90,0.2,0.9,right,0,['right'],[0.42641760036349297],115.35851749964058,115.59978079982102
39,0,39,270,270,0.2,0.9,no_target,0,[],[],116.65377449989319,116.89957090094686
40,0,40,270,270,0.2,0.9,no_target,0,['left'],[0.5956640988588333],117.95764279924333,118.19954490102828
41,0,41,90,270,0.5,0.5,left,0,['left'],[0.5374852996319532],119.25534090027213,119.49955609999597
42,0,42,90,270,0.2,0.9,left,0,['left'],[0.6847306005656719],120.55624560080469,120.79882019944489
43,0,43,270,270,0.4,0.4,no_target,0,[],[],121.85163190029562,122.09976120106876
44,0,44,270,90,0.4,0.4,right,0,[],[],123.15632960014045,123.39968650043011
45,0,45,270,270,0.2,0.9,no_target,0,[],[],124.45592889934778,124.69972869940102
46,0,46,270,270,0.2,0.9,no_target,0,[],[],125.75608349964023,125.99956030026078
47,0,47,270,270,0.2,0.9,no_target,0,[],[],127.05573979951441,127.29981900006533
48,0,48,270,90,0.5,0.4,right,0,['right'],[0.5282386001199484],128.35269629955292,128.59967610053718
49,0,49,90,270,0.4,0.5,left,0,['left'],[0.43890189938247204],129.65809370018542,129.89943110011518
50,0,50,90,270,0.4,0.4,left,0,['left'],[0.6295015010982752],130.95538800023496,131.1991657000035
51,0,51,270,270,0.2,0.9,no_target,0,[],[],132.25671040080488,132.49957730062306
52,0,52,270,270,0.5,0.5,no_target,0,[],[],133.55545539967716,133.79932300001383
53,0,53,270,90,0.2,0.9,right,0,['right'],[0.45594889856874943],134.85717550106347,135.09950830042362
54,0,54,270,270,0.4,0.5,no_target,0,[],[],136.15591420046985,136.3993417005986
55,0,55,270,270,0.2,0.9,no_target,0,[],[],137.45590100064874,137.69953520037234
56,0,56,270,90,0.4,0.5,right,0,['right'],[0.42716769874095917],138.7578529007733,138.99974999949336
57,0,57,270,90,0.2,0.9,right,0,['right'],[0.5123558007180691],140.05629950016737,140.29896520078182
58,0,58,270,270,0.2,0.9,no_target,0,[],[],141.35245010070503,141.59945910051465
59,0,59,270,90,0.2,0.9,right,0,['right'],[0.5855602007359266],142.65538679994643,142.8995427992195
60,0,60,270,90,0.4,0.5,right,0,[],[],143.9554078001529,144.1992655005306
61,0,61,270,270,0.4,0.4,no_target,0,[],[],145.25869579985738,145.4994856994599
62,0,62,90,270,0.4,0.5,left,0,['left'],[0.6935639996081591],146.5554217994213,146.79967820085585
63,0,63,270,270,0.5,0.4,no_target,0,[],[],147.85624290071428,148.09936239942908
64,0,64,270,270,0.5,0.5,no_target,0,[],[],149.15293130092323,149.39975770004094
65,0,65,270,90,0.5,0.5,right,0,['right'],[0.38091110065579414],150.45206120051444,150.69978970102966
66,0,66,90,270,0.4,0.5,left,0,[],[],151.75508950091898,151.9995256010443
67,0,67,270,90,0.4,0.5,right,0,['right'],[0.4975410997867584],153.05555840022862,153.29910540021956
68,0,68,270,90,0.5,0.4,right,0,[],[],154.3553011994809,154.59913619980216
69,0,69,270,90,0.4,0.4,right,0,[],[],155.6550527997315,155.89967050030828
70,0,70,270,90,0.5,0.5,right,0,[],[],156.95582089945674,157.19957249984145
71,0,71,270,90,0.2,0.9,right,0,"['left', 'right', 'right']","[0.5098735000938177, 0.14814179949462414, 0.7081674989312887]",158.25296030007303,158.49956279993057
72,0,72,270,90,0.5,0.5,right,0,[],[],159.5570259001106,159.79935220070183
73,0,73,270,270,0.2,0.9,no_target,0,['right'],[1.072282999753952],160.85681789927185,161.09960179962218
74,0,74,270,90,0.5,0.4,right,0,"['left', 'right']","[1.2053012009710073, 0.8773614000529051]",162.15538210049272,162.39927970059216
75,0,75,270,270,0.4,0.4,no_target,0,[],[],163.45302579924464,163.69980780035257
76,0,76,270,270,0.5,0.4,no_target,0,[],[],164.80095290020108,165.03246619924903
77,0,77,90,270,0.5,0.4,left,0,['left'],[0.07741929963231087],166.08828330039978,166.33248599991202
78,0,78,270,90,0.5,0.4,right,0,['right'],[0.588416900485754],167.38858689926565,167.63296470046043
79,0,79,90,270,0.2,0.9,left,0,['left'],[0.4727851990610361],168.69026320055127,168.93270630016923
80,0,80,90,270,0.5,0.5,left,0,['left'],[0.5508069004863501],169.9881625007838,170.2329772002995
81,0,81,270,270,0.2,0.9,no_target,0,[],[],171.28850680030882,171.53312280029058
82,0,82,270,90,0.5,0.4,right,0,['right'],[0.4832425005733967],172.58987589925528,172.83282110095024
83,0,83,90,270,0.2,0.9,left,0,['left'],[0.7489317003637552],173.8853168003261,174.13303869962692
84,0,84,270,270,0.5,0.4,no_target,0,[],[],175.1884656995535,175.4328629001975
85,0,85,270,90,0.2,0.9,right,0,['right'],[0.5631150994449854],176.4861412998289,176.73262470029294
86,0,86,90,270,0.2,0.9,left,0,[],[],177.7886788006872,178.032890599221
87,0,87,270,90,0.2,0.9,right,0,[],[],179.08810029923916,179.3329610992223
88,0,88,90,270,0.2,0.9,left,0,[],[],180.38688400015235,180.6328571010381
89,0,89,90,270,0.4,0.4,left,0,['left'],[0.47589709982275963],181.6900193002075,181.9329192005098
90,0,90,270,270,0.4,0.5,no_target,0,[],[],182.9878563992679,183.2329048998654
91,0,91,270,90,0.5,0.5,right,0,['right'],[0.5843818988651037],184.2888815999031,184.5324438009411
92,0,92,270,90,0.2,0.9,right,0,['right'],[0.8758805003017187],185.58948310092092,185.8322138004005
93,0,93,270,270,0.4,0.5,no_target,0,[],[],186.88879330083728,187.13219960033894
94,0,94,90,270,0.5,0.5,left,0,['left'],[0.6468969006091356],188.18750260025263,188.43258769996464
95,0,95,90,270,0.4,0.4,left,0,['left'],[0.5574083011597395],189.48649110086262,189.7326245997101
96,0,96,90,270,0.5,0.4,left,0,['left'],[0.8907190002501011],190.789136800915,191.03235040046275
97,0,97,270,90,0.4,0.4,right,0,['right'],[0.5783833991736174],192.0870214998722,192.33295759931207
98,0,98,90,270,0.2,0.9,left,0,[],[],193.3849999010563,193.63284729979932
0,1,0,90,270,0.5,0.4,left,1,['left'],[0.6116828005760908],200.83301229961216,201.08315549977124
1,1,1,270,270,0.5,0.5,no_target,1,[],[],202.1379853002727,202.3826979007572
2,1,2,90,270,0.9,0.2,left,1,['left'],[0.7041370999068022],203.43959639966488,203.68237460032105
3,1,3,270,270,0.9,0.2,no_target,1,[],[],204.7361354995519,204.98240249976516
4,1,4,270,90,0.4,0.5,right,1,['right'],[0.6891195997595787],206.03975969925523,206.2821651995182
5,1,5,270,270,0.5,0.5,no_target,1,[],[],207.339669900015,207.5822799000889
6,1,6,90,270,0.5,0.5,left,1,['left'],[0.4813156984746456],208.63937759958208,208.8823198992759
7,1,7,90,270,0.5,0.5,left,1,['left'],[0.4495345000177622],209.93894219957292,210.18282750062644
8,1,8,270,270,0.5,0.4,no_target,1,[],[],211.23887570016086,211.48239989951253
9,1,9,90,270,0.9,0.2,left,1,['left'],[0.7017563004046679],212.537426199764,212.7820581998676
10,1,10,270,90,0.9,0.2,right,1,[],[],213.8378321994096,214.08220789954066
11,1,11,270,90,0.9,0.2,right,1,['right'],[0.8228839989751577],215.1382756009698,215.3827995005995
12,1,12,270,270,0.5,0.4,no_target,1,[],[],216.43890570104122,216.68219820037484
13,1,13,270,270,0.9,0.2,no_target,1,[],[],217.73719039931893,217.98275000043213
14,1,14,90,270,0.4,0.5,left,1,['left'],[0.6713686008006334],219.0384152997285,219.2825876995921
15,1,15,270,90,0.5,0.5,right,1,['right'],[0.5300536993891001],220.33516510017216,220.58294530026615
16,1,16,90,270,0.9,0.2,left,1,['left'],[0.6187990009784698],221.63855000026524,221.8827970996499
17,1,17,270,90,0.4,0.4,right,1,['right'],[0.6141264997422695],222.93894319981337,223.18282370083034
18,1,18,90,270,0.5,0.4,left,1,['left'],[0.6427360009402037],224.23836519941688,224.48233390040696
19,1,19,90,270,0.9,0.2,left,1,[],[],225.5403039995581,225.78257890045643
20,1,20,270,90,0.9,0.2,right,1,['right'],[0.772215599194169],226.83680319972336,227.0825231000781
21,1,21,270,270,0.5,0.4,no_target,1,[],[],228.13922549970448,228.3829708993435
22,1,22,90,270,0.5,0.5,left,1,[],[],229.4382809009403,229.68232499994338
23,1,23,270,90,0.5,0.4,right,1,[],[],230.73944470100105,230.982795400545
24,1,24,90,270,0.9,0.2,left,1,"['right', 'left']","[1.2295667994767427, 0.7704668007791042]",232.03913209959865,232.28309320099652
25,1,25,90,270,0.4,0.4,left,1,[],[],233.3412941005081,233.5827938001603
26,1,26,270,270,0.9,0.2,no_target,1,[],[],234.63603200018406,234.88281890004873
27,1,27,270,90,0.5,0.5,right,1,['right'],[0.4624936990439892],235.9384564999491,236.18295959942043
28,1,28,90,270,0.9,0.2,left,1,['left'],[0.434060899540782],237.2394379004836,237.48280859924853
29,1,29,270,270,0.9,0.2,no_target,1,['right'],[0.7568143997341394],238.5401264000684,238.78286820091307
30,1,30,270,90,0.9,0.2,right,1,[],[],239.8376474995166,240.0825798995793
31,1,31,90,270,0.5,0.5,left,1,['left'],[0.593486700206995],241.14001600071788,241.38267219997942
32,1,32,90,270,0.9,0.2,left,1,['left'],[0.52498409897089],242.43926900066435,242.68264570087194
33,1,33,270,270,0.9,0.2,no_target,1,[],[],243.73489009961486,243.9827532004565
34,1,34,270,90,0.4,0.5,right,1,['right'],[0.5212489999830723],245.039938300848,245.2827518992126
35,1,35,90,270,0.4,0.5,left,1,['left'],[1.01797859929502],246.33657540008426,246.58296200074255
36,1,36,270,270,0.4,0.5,no_target,1,[],[],247.63844130001962,247.88286310061812
37,1,37,270,270,0.5,0.5,no_target,1,[],[],248.9398960992694,249.18271730095148
38,1,38,270,270,0.5,0.4,no_target,1,[],[],250.23837370052934,250.48310369998217
39,1,39,270,90,0.9,0.2,right,1,['right'],[0.5810430999845266],251.53982700034976,251.78226260095835
40,1,40,270,270,0.5,0.5,no_target,1,['left'],[0.6164536010473967],252.8392620999366,253.08234979957342
41,1,41,270,270,0.9,0.2,no_target,1,['right'],[0.6019880995154381],254.1352728996426,254.38248459994793
42,1,42,90,270,0.4,0.4,left,1,['left'],[0.8098817002028227],255.43823350034654,255.6829247009009
43,1,43,270,90,0.9,0.2,right,1,['right'],[0.6219146996736526],256.73918900080025,256.9827373009175
44,1,44,270,90,0.4,0.5,right,1,[],[],258.03957490064204,258.2826598007232
45,1,45,270,90,0.4,0.4,right,1,['right'],[0.5988864991813898],259.3381997998804,259.5826917998493
46,1,46,270,90,0.4,0.4,right,1,[],[],260.63824629969895,260.8824569992721
47,1,47,270,270,0.9,0.2,no_target,1,[],[],261.9391594007611,262.1824325993657
48,1,48,270,270,0.9,0.2,no_target,1,[],[],263.2402494996786,263.4820771999657
49,1,49,270,90,0.4,0.5,right,1,['right'],[0.5236301999539137],264.54136550053954,264.78301909938455
50,1,50,270,270,0.4,0.5,no_target,1,[],[],265.83932589925826,266.082782600075
51,1,51,270,270,0.4,0.4,no_target,1,[],[],267.1378345992416,267.3824736997485
52,1,52,90,270,0.4,0.4,left,1,['left'],[0.8186955004930496],268.4379350002855,268.6830625999719
53,1,53,270,90,0.5,0.4,right,1,['right'],[0.5893822982907295],269.739525500685,269.98278300091624
54,1,54,270,270,0.9,0.2,no_target,1,[],[],271.03843550011516,271.2829954009503
55,1,55,270,90,0.5,0.5,right,1,['right'],[0.6197060998529196],272.34139380045235,272.58305189944804
56,1,56,270,90,0.9,0.2,right,1,[],[],273.6424707006663,273.88294520042837
57,1,57,270,270,0.4,0.4,no_target,1,[],[],274.93860249966383,275.1828557997942
58,1,58,270,270,0.4,0.5,no_target,1,[],[],276.2369908001274,276.483007600531
59,1,59,90,270,0.4,0.4,left,1,[],[],277.5358076002449,277.7825687993318
60,1,60,270,90,0.5,0.4,right,1,"['right', 'right']","[1.161369999870658, 0.8643493000417948]",278.8407115004957,279.08293949998915
61,1,61,270,270,0.4,0.5,no_target,1,[],[],280.1396459992975,280.38233540020883
62,1,62,90,270,0.4,0.5,left,1,['left'],[0.5871871989220381],281.4395208004862,281.6828515008092
63,1,63,270,90,0.5,0.5,right,1,['right'],[0.6536292005330324],282.7392833996564,282.9826404992491
64,1,64,90,270,0.5,0.5,left,1,['left'],[0.7296044994145632],284.0386904999614,284.282640600577
65,1,65,90,270,0.9,0.2,left,1,['left'],[0.8584860004484653],285.3353695999831,285.58218229934573
66,1,66,270,270,0.9,0.2,no_target,1,[],[],286.63988859951496,286.88304580003023
67,1,67,90,270,0.9,0.2,left,1,['left'],[0.8973290994763374],287.93855640105903,288.1829578001052
68,1,68,270,90,0.5,0.5,right,1,['right'],[0.8782927002757788],289.23493760079145,289.48231229931116
69,1,69,90,270,0.5,0.4,left,1,['left'],[0.8863421995192766],290.53401329927146,290.78292340040207
70,1,70,90,270,0.9,0.2,left,1,['left'],[0.9872066006064415],291.8399084992707,292.082272099331
71,1,71,90,270,0.4,0.5,left,1,[],[],293.1395718995482,293.3822476994246
72,1,72,270,270,0.4,0.4,no_target,1,[],[],294.4397602006793,294.68226270005107
73,1,73,270,90,0.9,0.2,right,1,['right'],[0.7253713998943567],295.7400994002819,295.9828309006989
74,1,74,90,270,0.9,0.2,left,1,['left'],[0.8011140991002321],297.0402099005878,297.2826950997114
75,1,75,90,270,0.9,0.2,left,1,[],[],298.3404894005507,298.58267509937286
76,1,76,270,90,0.4,0.5,right,1,['right'],[0.6491843983530998],299.6400103010237,299.88248169980943
77,1,77,270,90,0.5,0.4,right,1,[],[],300.9391003008932,301.1827869992703
78,1,78,270,270,0.9,0.2,no_target,1,[],[],302.2393363006413,302.482184600085
79,1,79,270,270,0.5,0.4,no_target,1,[],[],303.53830010071397,303.7826991006732
80,1,80,270,90,0.9,0.2,right,1,['right'],[0.5853847991675138],304.8396720997989,305.08232310041785
81,1,81,90,270,0.4,0.5,left,1,['left'],[0.5607802998274565],306.14001419954,306.38286509923637
82,1,82,270,90,0.5,0.4,right,1,['right'],[0.5611513014882803],307.43975670076907,307.6828327998519
83,1,83,270,90,0.9,0.2,right,1,[],[],308.73677589930594,308.98281110078096
84,1,84,270,90,0.4,0.4,right,1,[],[],310.0395292993635,310.28194019943476
85,1,85,270,270,0.9,0.2,no_target,1,[],[],311.33454659953713,311.58185050077736
86,1,86,270,270,0.4,0.5,no_target,1,[],[],312.6370286010206,312.88216789998114
87,1,87,90,270,0.5,0.4,left,1,['left'],[0.5651645995676517],313.94013730064034,314.1828879006207
88,1,88,270,270,0.4,0.4,no_target,1,[],[],315.2380033992231,315.4822525996715
89,1,89,270,270,0.5,0.5,no_target,1,[],[],316.5406433008611,316.7828621007502
90,1,90,270,90,0.9,0.2,right,1,['right'],[0.5169254001230001],317.83603500016034,318.081920100376
91,1,91,270,270,0.4,0.4,no_target,1,[],[],319.1413269005716,319.3828304000199
92,1,92,90,270,0.5,0.4,left,1,['left'],[0.5732742995023727],320.4394012000412,320.6825344003737
93,1,93,270,90,0.9,0.2,right,1,[],[],321.7373852003366,321.9822618998587
94,1,94,90,270,0.4,0.4,left,1,['left'],[0.5533939991146326],323.0384803004563,323.2825202997774
95,1,95,90,270,0.9,0.2,left,1,[],[],324.33600750006735,324.58257550001144
96,1,96,270,90,0.4,0.4,right,1,['right'],[0.6753920000046492],325.63742760010064,325.88204840011895
97,1,97,270,90,0.9,0.2,right,1,[],[],326.93733350001276,327.18276119977236
98,1,98,270,270,0.9,0.2,no_target,1,[],[],328.2390743996948,328.4828018993139
0,2,0,270,90,0.2,0.9,right,0,['right'],[0.995262099429965],334.91758120059967,335.16615870036185
1,2,1,270,90,0.4,0.4,right,0,['right'],[0.6003190986812115],336.2245608009398,336.46533039957285
2,2,2,270,90,0.2,0.9,right,0,['right'],[0.6382619999349117],337.52291839942336,337.7659521996975
3,2,3,270,270,0.5,0.5,no_target,0,[],[],338.8218422010541,339.06621959991753
4,2,4,90,270,0.2,0.9,left,0,[],[],340.1224680002779,340.3661269005388
5,2,5,270,90,0.5,0.4,right,0,[],[],341.4230863004923,341.6660808995366
6,2,6,90,270,0.4,0.4,left,0,['left'],[0.8907481003552675],342.72160880081356,342.9656956009567
7,2,7,90,270,0.2,0.9,left,0,[],[],344.02290279977024,344.266119800508
8,2,8,270,90,0.4,0.4,right,0,['right'],[0.5102245006710291],345.32241830043495,345.5656461995095
9,2,9,90,270,0.5,0.4,left,0,['left'],[0.5357026997953653],346.62454479932785,346.86599260009825
10,2,10,270,90,0.2,0.9,right,0,['right'],[0.5644288007169962],347.9244695995003,348.1661831997335
11,2,11,270,90,0.4,0.5,right,0,[],[],349.22179269976914,349.46585380099714
12,2,12,270,90,0.5,0.5,right,0,['right'],[1.0026631988584995],350.5180562995374,350.7653701994568
13,2,13,90,270,0.2,0.9,left,0,['left'],[0.5604346003383398],351.8216810002923,352.0661399997771
14,2,14,270,90,0.5,0.4,right,0,['right'],[0.8214841987937689],353.1236850004643,353.36609110049903
15,2,15,270,270,0.5,0.5,no_target,0,[],[],354.4229473993182,354.665525700897
16,2,16,90,270,0.4,0.5,left,0,['left'],[0.6032650992274284],355.72308850102127,355.9661474004388
17,2,17,270,270,0.2,0.9,no_target,0,[],[],357.02356049977243,357.2661595996469
18,2,18,270,90,0.5,0.5,right,0,['right'],[0.5625049006193876],358.31868790090084,358.56616820022464
19,2,19,270,270,0.4,0.5,no_target,0,[],[],359.6221312992275,359.8661742992699
20,2,20,90,270,0.4,0.4,left,0,['left'],[0.6456840001046658],360.92004290036857,361.1661505997181
21,2,21,90,270,0.4,0.4,left,0,[],[],362.22175849974155,362.4661621004343
22,2,22,270,90,0.2,0.9,right,0,['right'],[0.5449719000607729],363.5202310997993,363.7662981003523
23,2,23,90,270,0.5,0.5,left,0,['left'],[0.5771332997828722],364.82535639964044,365.0656046997756
24,2,24,270,270,0.5,0.4,no_target,0,[],[],366.1214150004089,366.366289800033
25,2,25,270,90,0.4,0.5,right,0,['right'],[0.7376383002847433],367.4232576992363,367.6656275000423
26,2,26,90,270,0.2,0.9,left,0,[],[],368.72032050043344,368.96585890091956
27,2,27,270,90,0.5,0.5,right,0,['right'],[0.9498741999268532],370.01921189948916,370.2657891009003
28,2,28,270,90,0.4,0.5,right,0,[],[],371.3183497004211,371.5661459993571
29,2,29,90,270,0.5,0.5,left,0,['left'],[0.5114825014024973],372.6224275995046,372.8662643004209
30,2,30,270,270,0.4,0.4,no_target,0,[],[],373.9226572997868,374.16568459942937
31,2,31,90,270,0.2,0.9,left,0,['left'],[0.6826418004930019],375.2229955997318,375.4660350997001
32,2,32,270,270,0.4,0.4,no_target,0,[],[],376.5240588001907,376.76578409969807
33,2,33,270,90,0.4,0.4,right,0,['right'],[0.6092381998896599],377.8239609003067,378.06599510088563
34,2,34,270,90,0.4,0.4,right,0,[],[],379.12023930065334,379.3660052996129
35,2,35,270,270,0.2,0.9,no_target,0,[],[],380.42239160090685,380.6661898009479
36,2,36,270,270,0.2,0.9,no_target,0,[],[],381.7224653009325,381.9661554004997
37,2,37,90,270,0.5,0.5,left,0,['left'],[0.7059004008769989],383.02267630025744,383.26568990014493
38,2,38,270,90,0.2,0.9,right,0,['right'],[0.606640899553895],384.3226785995066,384.56568020023406
39,2,39,270,270,0.4,0.4,no_target,0,[],[],385.6220348998904,385.86556000076234
40,2,40,270,270,0.2,0.9,no_target,0,[],[],386.92093000002205,387.16636439971626
41,2,41,270,270,0.2,0.9,no_target,0,[],[],388.2215007003397,388.4658918008208
42,2,42,270,90,0.4,0.5,right,0,['right'],[0.6066587995737791],389.52253679931164,389.7660459000617
43,2,43,270,270,0.2,0.9,no_target,0,[],[],390.8225522004068,391.06637929938734
44,2,44,90,270,0.2,0.9,left,0,['left'],[0.5302665010094643],392.12041079998016,392.3659880999476
45,2,45,90,270,0.4,0.5,left,0,['left'],[0.8083996009081602],393.42385979928076,393.6661003995687
46,2,46,270,270,0.5,0.4,no_target,0,[],[],394.72226200066507,394.96569970063865
47,2,47,270,270,0.2,0.9,no_target,0,[],[],396.02053100056946,396.26526080071926
48,2,48,90,270,0.5,0.4,left,0,['left'],[0.6333594992756844],397.31843890063465,397.56523939967155
49,2,49,270,90,0.2,0.9,right,0,['right'],[0.5875096004456282],398.62153279967606,398.86628939956427
50,2,50,270,90,0.5,0.4,right,0,[],[],399.92214010097086,400.16596150025725
51,2,51,270,270,0.5,0.5,no_target,0,[],[],401.22459669969976,401.46560869924724
52,2,52,270,90,0.2,0.9,right,0,['right'],[0.5279136002063751],402.5210296008736,402.76615330018103
53,2,53,90,270,0.4,0.5,left,0,['left'],[0.610284298658371],403.8232142999768,404.065476000309
54,2,54,270,90,0.2,0.9,right,0,['right'],[0.8469498008489609],405.12180810049176,405.3658863995224
55,2,55,90,270,0.2,0.9,left,0,['left'],[0.8739842996001244],406.4236667007208,406.6661594994366
56,2,56,90,270,0.4,0.4,left,0,[],[],407.72234020009637,407.96566919982433
57,2,57,90,270,0.4,0.5,left,0,[],[],409.02056699991226,409.26616049930453
58,2,58,270,90,0.2,0.9,right,0,['right'],[0.5172444991767406],410.3238409999758,410.5662232004106
59,2,59,90,270,0.2,0.9,left,0,['left'],[0.8417008016258478],411.62202830053866,411.8656163997948
60,2,60,90,270,0.5,0.4,left,0,['left'],[0.7629357017576694],412.9239483997226,413.1661176998168
61,2,61,270,90,0.2,0.9,right,0,['right'],[0.7699859011918306],414.22305179946125,414.46606620028615
62,2,62,270,270,0.2,0.9,no_target,0,[],[],415.5206921994686,415.7661259006709
63,2,63,270,90,0.2,0.9,right,0,['right'],[0.5497734006494284],416.81897849962115,417.06590159982443
64,2,64,270,90,0.2,0.9,right,0,['right'],[0.7814261000603437],418.1236381009221,418.3660454992205
65,2,65,270,270,0.4,0.5,no_target,0,[],[],419.4193121995777,419.66547019965947
66,2,66,270,270,0.2,0.9,no_target,0,[],[],420.72050340101123,420.9663702994585
67,2,67,270,90,0.4,0.5,right,0,[],[],422.021247100085,422.26616420038044
68,2,68,270,270,0.5,0.5,no_target,0,['right'],[1.2117304001003504],423.323716500774,423.56566550023854
69,2,69,90,270,0.5,0.4,left,0,['left'],[0.9089412987232208],424.61779700033367,424.8657905999571
70,2,70,90,270,0.2,0.9,left,0,[],[],425.92413130030036,426.16568329930305
71,2,71,90,270,0.5,0.5,left,0,['left'],[0.471349498257041],427.2222968004644,427.4659666996449
72,2,72,270,270,0.2,0.9,no_target,0,[],[],428.5231734998524,428.76602680049837
73,2,73,270,270,0.5,0.4,no_target,0,[],[],429.8187396004796,430.06613319925964
74,2,74,90,270,0.2,0.9,left,0,['left'],[0.5065039005130529],431.12087460048497,431.36624040082097
75,2,75,270,90,0.5,0.5,right,0,['right'],[0.6294858008623123],432.4194079004228,432.66552890092134
76,2,76,90,270,0.5,0.4,left,0,['left'],[0.4879599008709192],433.72268079966307,433.96571129933
77,2,77,270,270,0.4,0.5,no_target,0,[],[],435.02237210050225,435.2659079004079
78,2,78,270,90,0.5,0.4,right,0,[],[],436.3188691996038,436.56534639932215
79,2,79,270,270,0.2,0.9,no_target,0,[],[],437.62260879948735,437.8652398996055
80,2,80,270,270,0.4,0.5,no_target,0,[],[],438.9214108996093,439.1651898995042
81,2,81,270,270,0.2,0.9,no_target,0,[],[],440.2218472994864,440.46608540043235
82,2,82,270,270,0.2,0.9,no_target,0,[],[],441.5220388006419,441.7660799007863
83,2,83,90,270,0.2,0.9,left,0,['left'],[0.574166901409626],442.8186013996601,443.0658244006336
84,2,84,270,270,0.4,0.5,no_target,0,[],[],444.12072619982064,444.3661023005843
85,2,85,270,270,0.4,0.4,no_target,0,[],[],445.42255919985473,445.6657301001251
86,2,86,90,270,0.4,0.5,left,0,[],[],446.72259669937193,446.9657719004899
87,2,87,90,270,0.2,0.9,left,0,['left'],[0.5902488995343447],448.02340120077133,448.2654858995229
88,2,88,90,270,0.5,0.5,left,0,[],[],449.3215338997543,449.56616370007396
89,2,89,270,270,0.5,0.4,no_target,0,[],[],450.62305589951575,450.8665296006948
90,2,90,270,90,0.4,0.4,right,0,[],[],451.92184380069375,452.16616540029645
91,2,91,90,270,0.4,0.4,left,0,['left'],[0.705748999491334],453.22354440018535,453.4661612007767
92,2,92,270,270,0.5,0.5,no_target,0,[],[],454.52178660035133,454.76628590002656
93,2,93,270,270,0.4,0.4,no_target,0,[],[],455.8219427000731,456.06545089930296
94,2,94,270,90,0.5,0.5,right,0,['right'],[0.5508198011666536],457.12236550077796,457.36612880043685
95,2,95,90,270,0.2,0.9,left,0,['left'],[0.6816240008920431],458.42072989977896,458.66615490056574
96,2,96,270,90,0.2,0.9,right,0,['right'],[0.5145229008048773],459.7188505008817,459.9661609008908
97,2,97,270,270,0.5,0.4,no_target,0,[],[],461.02223099954426,461.26608850061893
98,2,98,270,90,0.5,0.4,right,0,['right'],[0.6624509003013372],462.3225448001176,462.5661634001881
0,3,0,90,270,0.4,0.4,left,1,[],[],535.4172176998109,535.6660655010492
1,3,1,90,270,0.9,0.2,left,1,['left'],[0.6600733995437622],536.721949800849,536.9662097003311
2,3,2,90,270,0.5,0.5,left,1,['left'],[0.5510556008666754],538.0197628010064,538.2662429008633
3,3,3,90,270,0.9,0.2,left,1,['left'],[0.6210890002548695],539.3211017008871,539.5656844004989
4,3,4,90,270,0.9,0.2,left,1,['left'],[0.5280562993139029],540.6226499993354,540.8657658006996
5,3,5,270,90,0.4,0.4,right,1,['right'],[0.5366569012403488],541.9202584009618,542.1661032997072
6,3,6,270,270,0.4,0.5,no_target,1,[],[],543.2229830008,543.4658889006823
7,3,7,270,270,0.5,0.5,no_target,1,[],[],544.5233271997422,544.7662239000201
8,3,8,270,270,0.5,0.4,no_target,1,[],[],545.8218377996236,546.0658525004983
9,3,9,270,90,0.9,0.2,right,1,['right'],[0.6852519996464252],547.1233658008277,547.3662021998316
10,3,10,90,270,0.9,0.2,left,1,['left'],[0.6022363007068634],548.4213593006134,548.6657462008297
11,3,11,270,90,0.4,0.5,right,1,['right'],[0.529314698651433],549.7198866996914,549.9661149010062
12,3,12,270,90,0.5,0.4,right,1,[],[],551.0193090010434,551.2660677004606
13,3,13,270,90,0.4,0.4,right,1,[],[],552.3213535994291,552.565778799355
14,3,14,270,90,0.5,0.4,right,1,['left'],[0.4674797002226114],553.6200804002583,553.865698300302
15,3,15,270,270,0.4,0.4,no_target,1,['left'],[0.7886928990483284],554.9172269999981,555.1660481002182
16,3,16,270,90,0.9,0.2,right,1,['right'],[0.7386783007532358],556.222354600206,556.4661084003747
17,3,17,270,270,0.5,0.4,no_target,1,[],[],557.5229732003063,557.7659716997296
18,3,18,90,270,0.4,0.4,left,1,[],[],558.8218690995127,559.0661369003356
19,3,19,270,90,0.9,0.2,right,1,['right'],[0.5589046999812126],560.1222517006099,560.3659450002015
20,3,20,90,270,0.9,0.2,left,1,['left'],[0.9482067991048098],561.4228875003755,561.6656343005598
21,3,21,270,270,0.9,0.2,no_target,1,[],[],562.7238435000181,562.9657167010009
22,3,22,270,270,0.4,0.4,no_target,1,['right'],[0.5654502995312214],564.0275114998221,564.2656645998359
23,3,23,270,270,0.5,0.5,no_target,1,[],[],565.3202365003526,565.5660708993673
24,3,24,270,270,0.9,0.2,no_target,1,[],[],566.6233840007335,566.8661902993917
25,3,25,270,90,0.9,0.2,right,1,['right'],[0.6059006992727518],567.9233740996569,568.1662844009697
26,3,26,270,90,0.9,0.2,right,1,[],[],569.2203738000244,569.4660797007382
27,3,27,270,270,0.9,0.2,no_target,1,[],[],570.5214480999857,570.76551309973
28,3,28,90,270,0.5,0.5,left,1,['left'],[0.5779696982353926],571.8222054000944,572.0660606995225
29,3,29,270,270,0.9,0.2,no_target,1,['right'],[0.5455518998205662],573.1195941008627,573.3656871002167
30,3,30,270,90,0.4,0.4,right,1,[],[],574.4238339997828,574.6659482009709
31,3,31,270,90,0.9,0.2,right,1,[],[],575.7226573005319,575.9660449996591
32,3,32,270,270,0.5,0.5,no_target,1,[],[],577.0225818995386,577.2660057004541
33,3,33,270,90,0.9,0.2,right,1,['right'],[0.4594995994120836],578.3172993008047,578.5655157007277
34,3,34,270,270,0.5,0.4,no_target,1,[],[],579.6267562992871,579.8661074992269
35,3,35,270,270,0.9,0.2,no_target,1,[],[],580.9225757997483,581.1660526003689
36,3,36,270,90,0.5,0.4,right,1,['right'],[0.5780797991901636],582.2226515002549,582.4659288004041
37,3,37,270,90,0.9,0.2,right,1,['right'],[0.6132105998694897],583.5237239003181,583.7659172993153
38,3,38,270,90,0.4,0.4,right,1,['right'],[0.5658496003597975],584.8187945000827,585.0661373008043
39,3,39,90,270,0.5,0.5,left,1,['left'],[0.45097350142896175],586.1228481996804,586.3658461999148
40,3,40,90,270,0.4,0.4,left,1,['left'],[0.6700362991541624],587.4220215994865,587.6661670003086
41,3,41,270,90,0.4,0.5,right,1,[],[],588.7235065009445,588.9654548000544
42,3,42,270,270,0.9,0.2,no_target,1,[],[],590.0228272005916,590.2662685997784
43,3,43,270,270,0.5,0.4,no_target,1,[],[],591.3212917000055,591.565485900268
44,3,44,90,270,0.5,0.4,left,1,['left'],[0.8748368006199598],592.6212265007198,592.8661014996469
45,3,45,270,90,0.5,0.4,right,1,[],[],593.9207345005125,594.1660274993628
46,3,46,90,270,0.5,0.5,left,1,['left'],[0.6679058000445366],595.2231449000537,595.4663999006152
47,3,47,270,90,0.9,0.2,right,1,['right'],[0.6334268003702164],596.5192415993661,596.7663113996387
48,3,48,270,270,0.5,0.4,no_target,1,[],[],597.8241610005498,598.0653873998672
49,3,49,270,90,0.4,0.5,right,1,['right'],[0.5191732011735439],599.12195529975,599.3662179000676
50,3,50,90,270,0.4,0.5,left,1,['left'],[0.6099081989377737],600.4220014009625,600.6660922002047
51,3,51,270,90,0.5,0.4,right,1,['right'],[0.567171098664403],601.7215938996524,601.9658282995224
52,3,52,270,270,0.4,0.5,no_target,1,[],[],603.0223082005978,603.2660162001848
53,3,53,90,270,0.9,0.2,left,1,['left'],[0.5707676000893116],604.3224961999804,604.5660667009652
54,3,54,270,90,0.5,0.5,right,1,[],[],605.6220564004034,605.8662454001606
55,3,55,90,270,0.5,0.4,left,1,['left'],[1.190642200410366],606.922918299213,607.1658445000648
56,3,56,270,270,0.9,0.2,no_target,1,[],[],608.2229786999524,608.4661238007247
57,3,57,270,270,0.9,0.2,no_target,1,[],[],609.5228640008718,609.7659776993096
58,3,58,90,270,0.9,0.2,left,1,['left'],[0.7742305006831884],610.823569200933,611.0658305995166
59,3,59,270,90,0.4,0.5,right,1,['right'],[0.8632676992565393],612.1216228995472,612.3656382001936
60,3,60,270,270,0.5,0.5,no_target,1,[],[],613.423381799832,613.665997300297
61,3,61,90,270,0.9,0.2,left,1,['left'],[0.5372768007218838],614.7204187996686,614.9661417994648
62,3,62,90,270,0.4,0.5,left,1,[],[],616.0211239997298,616.2660735007375
63,3,63,270,270,0.5,0.5,no_target,1,[],[],617.3235392998904,617.5661510005593
64,3,64,270,270,0.4,0.5,no_target,1,[],[],618.6218666993082,618.8660566993058
65,3,65,270,90,0.5,0.5,right,1,['right'],[0.42940380051732063],619.923434400931,620.1661083009094
66,3,66,270,270,0.9,0.2,no_target,1,[],[],621.222022799775,621.4661165010184
67,3,67,90,270,0.4,0.5,left,1,['left'],[0.5124554000794888],622.5224820002913,622.7661569993943
68,3,68,90,270,0.5,0.4,left,1,[],[],623.8217971008271,624.065666500479
69,3,69,270,270,0.9,0.2,no_target,1,[],[],625.1211019009352,625.3655799999833
70,3,70,90,270,0.4,0.4,left,1,['left'],[0.6301910001784563],626.42215609923,626.6664068996906
71,3,71,90,270,0.4,0.4,left,1,[],[],627.7225436009467,627.9655447006226
72,3,72,270,270,0.9,0.2,no_target,1,[],[],629.0223823003471,629.2655977010727
73,3,73,90,270,0.9,0.2,left,1,['left'],[0.5307932998985052],630.322094000876,630.566316999495
74,3,74,270,90,0.5,0.5,right,1,['right'],[0.5618728008121252],631.6230264995247,631.865792799741
75,3,75,90,270,0.9,0.2,left,1,[],[],632.9221103992313,633.1658216007054
76,3,76,90,270,0.4,0.5,left,1,['left'],[0.42286220006644726],634.2227606996894,634.4663117006421
77,3,77,90,270,0.5,0.4,left,1,[],[],635.5201587993652,635.7655839007348
78,3,78,90,270,0.9,0.2,left,1,[],[],636.8221920002252,637.0661171004176
79,3,79,270,270,0.4,0.4,no_target,1,[],[],638.1184455994517,638.3660896010697
80,3,80,270,90,0.5,0.5,right,1,['right'],[0.5430906005203724],639.4179541002959,639.6662159003317
81,3,81,270,270,0.4,0.5,no_target,1,[],[],640.7224794998765,640.9654357004911
82,3,82,270,270,0.4,0.5,no_target,1,[],[],642.0216138996184,642.2659952994436
83,3,83,270,90,0.5,0.5,right,1,['right'],[0.4651395995169878],643.3196929004043,643.5661057010293
84,3,84,90,270,0.9,0.2,left,1,['left'],[0.7299984991550446],644.6228538993746,644.8660362996161
85,3,85,270,270,0.4,0.4,no_target,1,[],[],645.9212401993573,646.1663217004389
86,3,86,270,270,0.9,0.2,no_target,1,[],[],647.2199150007218,647.465392600745
87,3,87,270,270,0.4,0.4,no_target,1,[],[],648.521591199562,648.7653663009405
88,3,88,90,270,0.5,0.5,left,1,['left'],[0.5699241012334824],649.8248379006982,650.0657397005707
89,3,89,90,270,0.5,0.4,left,1,[],[],651.1224135998636,651.366107000038
90,3,90,90,270,0.4,0.5,left,1,[],[],652.4223292004317,652.6656634993851
91,3,91,90,270,0.9,0.2,left,1,['left'],[0.44821419939398766],653.7202610000968,653.9662528000772
92,3,92,270,270,0.9,0.2,no_target,1,[],[],655.0195282008499,655.2662403006107
93,3,93,270,90,0.9,0.2,right,1,['right'],[0.46281009912490845],656.3222819007933,656.56604960002
94,3,94,270,90,0.9,0.2,right,1,[],[],657.621894299984,657.8661479000002
95,3,95,270,90,0.4,0.4,right,1,[],[],658.9214268997312,659.1655173003674
96,3,96,270,90,0.9,0.2,right,1,['right'],[0.6187121998518705],660.2221796996891,660.4661881998181
97,3,97,270,90,0.9,0.2,right,1,[],[],661.5209558010101,661.7657832000405
98,3,98,270,90,0.4,0.5,right,1,[],[],662.822970399633,663.0654895994812
0,4,0,90,270,0.2,0.9,left,0,[],[],669.2497843001038,669.4991305004805
1,4,1,270,90,0.2,0.9,right,0,['right'],[0.516262698918581],670.556694900617,670.7992778997868
2,4,2,270,90,0.2,0.9,right,0,['right'],[0.6177867986261845],671.8552630003542,672.098775099963
3,4,3,90,270,0.4,0.5,left,0,['left'],[0.6008352003991604],673.1557772997767,673.3989268001169
4,4,4,270,90,0.2,0.9,right,0,['right'],[0.548370499163866],674.4525959994644,674.699408300221
5,4,5,270,270,0.5,0.4,no_target,0,[],[],675.751369100064,675.9993815999478
6,4,6,270,90,0.2,0.9,right,0,['right'],[0.45819029957056046],677.0548911001533,677.299367800355
7,4,7,270,90,0.5,0.4,right,0,['right'],[0.7967670001089573],678.3562634009868,678.5988392010331
8,4,8,90,270,0.5,0.5,left,0,['left'],[0.5330676008015871],679.6548104993999,679.8994082994759
9,4,9,270,270,0.4,0.4,no_target,0,[],[],680.9567658994347,681.1996685005724
10,4,10,270,270,0.2,0.9,no_target,0,[],[],682.2571191992611,682.4994798004627
11,4,11,90,270,0.4,0.4,left,0,['left'],[0.46629329957067966],683.555231500417,683.7994276992977
12,4,12,90,270,0.2,0.9,left,0,[],[],684.8560068998486,685.0993987005204
13,4,13,90,270,0.4,0.5,left,0,[],[],686.1557542998344,686.3993155006319
14,4,14,270,90,0.2,0.9,right,0,['right'],[0.6103616990149021],687.4550912994891,687.6989843994379
15,4,15,270,90,0.5,0.5,right,0,['right'],[0.6494414005428553],688.759377900511,688.9988525994122
16,4,16,90,270,0.5,0.4,left,0,['left'],[0.5336573999375105],690.0552421007305,690.2989900000393
17,4,17,270,270,0.5,0.4,no_target,0,[],[],691.3550892006606,691.5988555010408
18,4,18,90,270,0.4,0.4,left,0,[],[],692.656605400145,692.8991158008575
19,4,19,270,90,0.2,0.9,right,0,['right'],[0.5257272012531757],693.9553372003138,694.1988639999181
20,4,20,270,90,0.4,0.5,right,0,['right'],[0.7677838001400232],695.2570159994066,695.4994492996484
21,4,21,270,270,0.2,0.9,no_target,0,[],[],696.5570762008429,696.7994606997818
22,4,22,90,270,0.2,0.9,left,0,[],[],697.8550498001277,698.0992779992521
23,4,23,90,270,0.2,0.9,left,0,[],[],699.1592164002359,699.3987802993506
24,4,24,270,90,0.4,0.4,right,0,['right'],[0.5529070999473333],700.4558198004961,700.6989786997437
25,4,25,270,270,0.4,0.4,no_target,0,[],[],701.7569156009704,701.9990274999291
26,4,26,270,270,0.2,0.9,no_target,0,[],[],703.0545661002398,703.2994241993874
27,4,27,90,270,0.4,0.4,left,0,['left'],[0.7937010005116463],704.3551033996046,704.599399799481
28,4,28,90,270,0.5,0.4,left,0,[],[],705.6539271995425,705.8994926009327
29,4,29,90,270,0.5,0.4,left,0,[],[],706.9525850005448,707.199015699327
30,4,30,270,270,0.2,0.9,no_target,0,[],[],708.256881499663,708.4994310997427
31,4,31,90,270,0.4,0.5,left,0,['left'],[0.6218017004430294],709.5527442004532,709.7991266008466
32,4,32,90,270,0.5,0.5,left,0,['left'],[0.5680174995213747],710.852947100997,711.0992005001754
33,4,33,90,270,0.2,0.9,left,0,[],[],712.1560593992472,712.3994907010347
34,4,34,270,270,0.4,0.5,no_target,0,[],[],713.4555786009878,713.699097700417
35,4,35,270,270,0.5,0.5,no_target,0,[],[],714.7553073000163,714.9989008996636
36,4,36,270,270,0.5,0.5,no_target,0,[],[],716.0570270009339,716.2994055002928
37,4,37,270,270,0.5,0.5,no_target,0,[],[],717.353493699804,717.5994150005281
38,4,38,90,270,0.5,0.5,left,0,[],[],718.6568372994661,718.8989902995527
39,4,39,270,270,0.2,0.9,no_target,0,[],[],719.955896999687,720.1995723005384
40,4,40,90,270,0.2,0.9,left,0,['left'],[0.852232601493597],721.2528824005276,721.4994233995676
41,4,41,270,270,0.2,0.9,no_target,0,[],[],722.5554269999266,722.7994430009276
42,4,42,270,270,0.4,0.4,no_target,0,[],[],723.8552753999829,724.0994351003319
43,4,43,270,90,0.2,0.9,right,0,['right'],[0.4941841010004282],725.154892699793,725.3990822006017
44,4,44,270,90,0.2,0.9,right,0,['right'],[0.9041074998676777],726.4564810004085,726.6993221007288
45,4,45,270,90,0.4,0.4,right,0,['right'],[0.781139399856329],727.7555752005428,727.9993549995124
46,4,46,90,270,0.2,0.9,left,0,[],[],729.0562926996499,729.2993238009512
47,4,47,270,90,0.2,0.9,right,0,[],[],730.3553045000881,730.5989996995777
48,4,48,90,270,0.5,0.5,left,0,['left'],[0.5961122009903193],731.6519559007138,731.8990055993199
49,4,49,270,90,0.4,0.5,right,0,['right'],[1.0039539001882076],732.9571487009525,733.199325799942
50,4,50,90,270,0.5,0.4,left,0,['left'],[0.5653866995126009],734.2558904998004,734.4994380008429
51,4,51,270,90,0.5,0.4,right,0,['right'],[0.7097279001027346],735.5553518999368,735.799148099497
52,4,52,270,90,0.4,0.4,right,0,[],[],736.8561901003122,737.0992444008589
53,4,53,270,90,0.5,0.5,right,0,['right'],[0.909604599699378],738.1551858000457,738.3992589004338
54,4,54,270,90,0.5,0.5,right,0,['right'],[0.6364236008375883],739.4605618994683,739.6994094010442
55,4,55,90,270,0.4,0.5,left,0,[],[],740.7555093001574,740.9990387000144
56,4,56,270,270,0.2,0.9,no_target,0,[],[],742.0554846003652,742.2994959000498
57,4,57,270,270,0.4,0.4,no_target,0,[],[],743.3517071008682,743.5986343994737
58,4,58,270,270,0.5,0.4,no_target,0,[],[],744.6565355993807,744.8995092995465
59,4,59,270,270,0.2,0.9,no_target,0,[],[],745.9553021993488,746.1994196996093
60,4,60,270,270,0.2,0.9,no_target,0,[],[],747.2553941998631,747.4994377009571
61,4,61,270,90,0.5,0.4,right,0,['right'],[0.6603068001568317],748.5565192997456,748.7991701010615
62,4,62,270,90,0.5,0.5,right,0,[],[],749.8555945996195,750.0989587008953
63,4,63,270,90,0.5,0.4,right,0,['right'],[0.9375122003257275],751.1515644006431,751.3991921003908
64,4,64,270,90,0.4,0.5,right,0,['right'],[0.6007527001202106],752.4562631007284,752.6995726004243
65,4,65,270,90,0.4,0.5,right,0,[],[],753.7550431992859,753.9988387003541
66,4,66,90,270,0.2,0.9,left,0,[],[],755.0573498997837,755.2985667008907
67,4,67,270,270,0.2,0.9,no_target,0,[],[],756.3550348002464,756.5994438994676
68,4,68,270,90,0.4,0.4,right,0,['right'],[0.6287989001721144],757.6520824003965,757.8992838002741
69,4,69,270,270,0.4,0.5,no_target,0,[],[],758.9511718004942,759.1988070998341
70,4,70,270,270,0.5,0.5,no_target,0,[],[],760.2566727008671,760.4994043000042
71,4,71,270,270,0.5,0.5,no_target,0,[],[],761.5551807004958,761.799295200035
72,4,72,270,90,0.5,0.5,right,0,['right'],[0.7216446995735168],762.8551215007901,763.0996026992798
73,4,73,90,270,0.4,0.4,left,0,['left'],[0.7609535995870829],764.1564319003373,764.3992953002453
74,4,74,90,270,0.2,0.9,left,0,[],[],765.4537704996765,765.6994196996093
75,4,75,90,270,0.2,0.9,left,0,[],[],766.7519023008645,766.9991891998798
76,4,76,270,270,0.5,0.4,no_target,0,[],[],768.056070400402,768.2987776994705
77,4,77,90,270,0.5,0.5,left,0,['left'],[0.5726082008332014],769.3553314004093,769.5990565009415
78,4,78,270,90,0.2,0.9,right,0,['right'],[0.6821376997977495],770.6546094994992,770.899525700137
79,4,79,270,270,0.4,0.5,no_target,0,[],[],771.954201200977,772.19904660061
80,4,80,270,90,0.4,0.5,right,0,['right'],[0.8891164995729923],773.2559989001602,773.4996849000454
81,4,81,270,90,0.2,0.9,right,0,['right'],[0.5983228012919426],774.5544672999531,774.7988623008132
82,4,82,90,270,0.4,0.4,left,0,['left'],[0.4931901004165411],775.8549803998321,776.0993780009449
83,4,83,270,270,0.2,0.9,no_target,0,[],[],777.1557443998754,777.3993106000125
84,4,84,90,270,0.2,0.9,left,0,['left'],[0.7862670999020338],778.4544786009938,778.6995230000466
85,4,85,270,90,0.4,0.4,right,0,['right'],[0.6551452986896038],779.7532487008721,779.9989932999015
86,4,86,270,90,0.2,0.9,right,0,[],[],781.0548308007419,781.2995292004198
87,4,87,270,270,0.2,0.9,no_target,0,[],[],782.3540230002254,782.5994164999574
88,4,88,270,270,0.5,0.4,no_target,0,[],[],783.657750800252,783.8995303995907
89,4,89,90,270,0.2,0.9,left,0,['left'],[0.610886400565505],784.9566741995513,785.1993186008185
90,4,90,90,270,0.4,0.5,left,0,[],[],786.2569800000638,786.4985380005091
91,4,91,270,270,0.2,0.9,no_target,0,[],[],787.5553363002837,787.7988335993141
92,4,92,90,270,0.5,0.4,left,0,['left'],[0.5400732010602951],788.8554136995226,789.0993514005095
93,4,93,270,270,0.4,0.4,no_target,0,[],[],790.1536002997309,790.3994602002203
94,4,94,90,270,0.2,0.9,left,0,[],[],791.4517135005444,791.6989057995379
95,4,95,270,90,0.2,0.9,right,0,['right'],[0.47017019987106323],792.7550236005336,792.9995102994144
96,4,96,270,90,0.5,0.4,right,0,['right'],[0.6591109000146389],794.0539514999837,794.2994010001421
97,4,97,270,270,0.4,0.5,no_target,0,[],[],795.3513421993703,795.599348500371
98,4,98,270,270,0.4,0.5,no_target,0,[],[],796.6535627003759,796.899397900328
0,5,0,270,90,0.5,0.5,right,1,['right'],[0.9411639999598265],803.6837102007121,803.932494500652
1,5,1,270,270,0.5,0.4,no_target,1,[],[],804.9918526001275,805.232716800645
2,5,2,270,270,0.4,0.4,no_target,1,[],[],806.289514400065,806.5326179992408
3,5,3,90,270,0.4,0.4,left,1,['left'],[0.5214689001441002],807.5881887003779,807.832327099517
4,5,4,90,270,0.4,0.4,left,1,[],[],808.8884197995067,809.1326823998243
5,5,5,270,90,0.9,0.2,right,1,['right'],[0.5078232008963823],810.188658900559,810.4326804000884
6,5,6,270,270,0.4,0.5,no_target,1,['left'],[0.4929136987775564],811.4892012998462,811.7322113998234
7,5,7,270,270,0.4,0.5,no_target,1,[],[],812.7898507993668,813.0327142998576
8,5,8,270,90,0.4,0.4,right,1,['right'],[0.47174839861691],814.0892431009561,814.332667099312
9,5,9,270,270,0.5,0.4,no_target,1,[],[],815.3888403996825,815.6327202003449
10,5,10,270,90,0.5,0.5,right,1,['right'],[0.5597337000072002],816.6890802998096,816.9320551995188
11,5,11,90,270,0.9,0.2,left,1,['left'],[0.7115700002759695],817.9887236002833,818.23280310072
12,5,12,270,270,0.9,0.2,no_target,1,[],[],819.2879706006497,819.5321797002107
13,5,13,270,90,0.9,0.2,right,1,['right'],[0.5651852004230022],820.5876844003797,820.8321185000241
14,5,14,90,270,0.4,0.5,left,1,['left'],[0.556343199685216],821.8875990994275,822.1325732003897
15,5,15,270,270,0.5,0.4,no_target,1,[],[],823.1905182003975,823.4319770000875
16,5,16,270,90,0.5,0.4,right,1,['right'],[0.45517750084400177],824.4895831998438,824.7327185999602
17,5,17,90,270,0.4,0.5,left,1,[],[],825.7884471006691,826.0326658003032
18,5,18,90,270,0.9,0.2,left,1,['left'],[0.7934370990842581],827.0892386995256,827.3330096993595
19,5,19,90,270,0.5,0.5,left,1,[],[],828.3883881010115,828.6320901010185
20,5,20,90,270,0.5,0.4,left,1,[],[],829.6903387010098,829.9327553007752
21,5,21,270,90,0.5,0.5,right,1,['right'],[0.4118544012308121],830.9890177994967,831.2329808007926
22,5,22,90,270,0.5,0.4,left,1,['left'],[0.5437831003218889],832.2901681996882,832.5326767992228
23,5,23,270,90,0.4,0.5,right,1,['right'],[0.5714238993823528],833.5891091004014,833.8325558006763
24,5,24,270,270,0.5,0.5,no_target,1,[],[],834.8870611004531,835.1321607995778
25,5,25,90,270,0.5,0.5,left,1,['left'],[0.614614000543952],836.1876918002963,836.432934500277
26,5,26,270,90,0.4,0.4,right,1,['right'],[0.4728331994265318],837.4879886992276,837.7329025994986
27,5,27,270,90,0.4,0.5,right,1,[],[],838.7900594994426,839.0329490993172
28,5,28,90,270,0.9,0.2,left,1,['left'],[0.46121690049767494],840.090208100155,840.3327053003013
29,5,29,90,270,0.5,0.4,left,1,['left'],[0.4703825004398823],841.3880051001906,841.6325586009771
30,5,30,90,270,0.9,0.2,left,1,['left'],[0.7810706999152899],842.6892574001104,842.9327095001936
31,5,31,90,270,0.9,0.2,left,1,['left'],[0.8715853989124298],843.9881041999906,844.2322352007031
32,5,32,90,270,0.9,0.2,left,1,['left'],[0.8689901996403933],845.2883957996964,845.5321945995092
33,5,33,270,270,0.5,0.5,no_target,1,[],[],846.5887739993632,846.8330429010093
34,5,34,270,270,0.4,0.4,no_target,1,[],[],847.8905666004866,848.1327056009322
35,5,35,270,90,0.9,0.2,right,1,['right'],[0.5268152002245188],849.1862489003688,849.4327112995088
36,5,36,270,90,0.4,0.5,right,1,[],[],850.4899806007743,850.7327046003193
37,5,37,270,90,0.9,0.2,right,1,[],[],851.7895512003452,852.0324591994286
38,5,38,90,270,0.4,0.5,left,1,['left'],[0.6087299007922411],853.0881670992821,853.3326652999967
39,5,39,270,270,0.4,0.5,no_target,1,[],[],854.38973909989,854.6325180996209
40,5,40,270,90,0.4,0.5,right,1,['right'],[0.7052932009100914],855.6876873001456,855.932714600116
41,5,41,90,270,0.9,0.2,left,1,['left'],[0.7526246998459101],856.987616000697,857.232153499499
42,5,42,270,90,0.5,0.4,right,1,['right'],[0.712218901142478],858.2886050008237,858.5322431009263
43,5,43,270,270,0.9,0.2,no_target,1,[],[],859.5887257009745,859.8326942995191
44,5,44,270,90,0.9,0.2,right,1,['right'],[0.8233263995498419],860.8894005008042,861.1321831997484
45,5,45,90,270,0.4,0.4,left,1,['left'],[0.6692623998969793],862.1880000997335,862.4325389005244
46,5,46,90,270,0.9,0.2,left,1,[],[],863.4872712008655,863.7322579994798
47,5,47,90,270,0.5,0.5,left,1,['left'],[0.6771306991577148],864.7892899997532,865.0327982008457
48,5,48,270,270,0.9,0.2,no_target,1,[],[],866.0848594997078,866.3324589002877
49,5,49,270,270,0.5,0.4,no_target,1,[],[],867.3889345005155,867.6328167002648
50,5,50,90,270,0.9,0.2,left,1,['left'],[0.7475371994078159],868.6880104001611,868.9326149001718
51,5,51,270,90,0.9,0.2,right,1,[],[],869.9901999998838,870.2320368997753
52,5,52,270,270,0.9,0.2,no_target,1,[],[],871.2846625000238,871.5329783000052
53,5,53,270,270,0.9,0.2,no_target,1,[],[],872.5887120999396,872.8325437996536
54,5,54,270,90,0.9,0.2,right,1,[],[],873.8873590994626,874.1320331003517
55,5,55,270,90,0.4,0.4,right,1,[],[],875.1878517009318,875.4322200994939
56,5,56,270,90,0.5,0.4,right,1,['right'],[0.6491471994668245],876.487749600783,876.7326293997467
57,5,57,90,270,0.5,0.4,left,1,['left'],[0.6486650984734297],877.787706900388,878.0329868998379
58,5,58,90,270,0.5,0.5,left,1,['left'],[0.6050808001309633],879.0881904996932,879.3326233010739
59,5,59,270,270,0.5,0.5,no_target,1,[],[],880.385287899524,880.632386399433
60,5,60,90,270,0.9,0.2,left,1,['left'],[0.7527984008193016],881.6885168999434,881.9327178001404
61,5,61,270,90,0.5,0.4,right,1,['right'],[0.5503465998917818],882.9865292999893,883.2322653010488
62,5,62,270,90,0.5,0.5,right,1,['right'],[0.5689697004854679],884.2880959007889,884.5324939005077
63,5,63,270,270,0.9,0.2,no_target,1,[],[],885.5869341008365,885.8324628993869
64,5,64,270,90,0.5,0.5,right,1,['right'],[0.5923064015805721],886.8884267993271,887.1327359005809
65,5,65,90,270,0.5,0.5,left,1,['left'],[0.5280616991221905],888.1901310998946,888.4325430002064
66,5,66,270,270,0.4,0.5,no_target,1,[],[],889.4884783998132,889.732754599303
67,5,67,270,90,0.9,0.2,right,1,['right'],[0.5315073002129793],890.789449699223,891.0323703996837
68,5,68,90,270,0.4,0.4,left,1,['left'],[0.5867544990032911],892.0909477006644,892.3320464007556
69,5,69,270,270,0.5,0.5,no_target,1,[],[],893.386032499373,893.6324722003192
70,5,70,270,90,0.4,0.4,right,1,[],[],894.688093399629,894.9328016005456
71,5,71,270,270,0.5,0.5,no_target,1,[],[],895.9846806004643,896.2328360993415
72,5,72,90,270,0.9,0.2,left,1,['left'],[0.46180239878594875],897.288184300065,897.5324441995472
73,5,73,90,270,0.4,0.5,left,1,[],[],898.5894153993577,898.8327242005616
74,5,74,270,90,0.9,0.2,right,1,['right'],[0.4972140993922949],899.8874657992274,900.1325225010514
75,5,75,270,90,0.9,0.2,right,1,[],[],901.1889830995351,901.432001600042
76,5,76,270,90,0.9,0.2,right,1,[],[],902.4858488999307,902.7320173997432
77,5,77,270,90,0.4,0.4,right,1,['right'],[0.5965659003704786],903.788290200755,904.0323143005371
78,5,78,270,270,0.5,0.4,no_target,1,[],[],905.0885426998138,905.332484100014
79,5,79,90,270,0.5,0.4,left,1,['left'],[0.5367534998804331],906.3878144007176,906.6322083994746
80,5,80,270,270,0.4,0.5,no_target,1,[],[],907.6890092995018,907.9326543994248
81,5,81,270,270,0.9,0.2,no_target,1,[],[],908.9886833000928,909.232249699533
82,5,82,270,270,0.4,0.4,no_target,1,[],[],910.2896646000445,910.5324099995196
83,5,83,90,270,0.4,0.5,left,1,['left'],[0.7966769989579916],911.5898905992508,911.8325484003872
84,5,84,270,270,0.4,0.4,no_target,1,[],[],912.8897418007255,913.1329290997237
85,5,85,270,270,0.9,0.2,no_target,1,[],[],914.1879389006644,914.4323219005018
86,5,86,270,90,0.5,0.4,right,1,[],[],915.4864920992404,915.7326865009964
87,5,87,270,270,0.9,0.2,no_target,1,[],[],916.7890735007823,917.0326915998012
88,5,88,270,90,0.9,0.2,right,1,['right'],[0.792517900466919],918.0880888998508,918.3327009994537
89,5,89,270,270,0.9,0.2,no_target,1,[],[],919.3874379005283,919.6324191000313
90,5,90,90,270,0.4,0.4,left,1,['left'],[0.5948533993214369],920.690309099853,920.9321555998176
91,5,91,270,270,0.4,0.4,no_target,1,[],[],921.9898699000478,922.2321390006691
92,5,92,90,270,0.9,0.2,left,1,['left'],[0.6622483991086483],923.2893249001354,923.5320188999176
93,5,93,270,270,0.9,0.2,no_target,1,[],[],924.5882511008531,924.8326885998249
94,5,94,90,270,0.9,0.2,left,1,['left'],[0.7356182988733053],925.8890915997326,926.1327046006918
95,5,95,270,270,0.9,0.2,no_target,1,[],[],927.1874839998782,927.4328666999936
96,5,96,270,270,0.9,0.2,no_target,1,[],[],928.4885575007647,928.732628999278
97,5,97,270,90,0.4,0.5,right,1,['right'],[0.6515688002109528],929.7897741999477,930.0328512005508
98,5,98,270,90,0.9,0.2,right,1,[],[],931.0872515998781,931.3326596003026
0,6,0,90,270,0.5,0.5,left,0,['left'],[0.4957064986228943],947.5671238005161,947.8155086003244
1,6,1,270,270,0.4,0.5,no_target,0,[],[],948.8716675993055,949.1156159993261
2,6,2,270,270,0.5,0.5,no_target,0,[],[],950.173340100795,950.4154800008982
3,6,3,270,90,0.2,0.9,right,0,['right'],[0.48083830066025257],951.4718567002565,951.7161631006747
4,6,4,90,270,0.5,0.4,left,0,['left'],[0.6662009004503489],952.7694538999349,953.0158732999116
5,6,5,270,90,0.2,0.9,right,0,['right'],[0.5287404004484415],954.0719876997173,954.3161510005593
6,6,6,90,270,0.5,0.5,left,0,['left'],[0.6954417005181313],955.370943499729,955.6154990009964
7,6,7,270,270,0.5,0.5,no_target,0,[],[],956.6720867007971,956.9160188995302
8,6,8,90,270,0.5,0.4,left,0,['left'],[0.5097676999866962],957.9725877009332,958.2160819992423
9,6,9,270,90,0.4,0.4,right,0,['right'],[0.6935529001057148],959.267650200054,959.5159239005297
10,6,10,90,270,0.5,0.5,left,0,['left'],[0.49254400096833706],960.5730616003275,960.8158691003919
11,6,11,90,270,0.2,0.9,left,0,[],[],961.8733399994671,962.1160611007363
12,6,12,270,270,0.5,0.4,no_target,0,[],[],963.1724737007171,963.4160428009927
13,6,13,270,90,0.4,0.4,right,0,['right'],[0.5296914000064135],964.4713035002351,964.7160366009921
14,6,14,90,270,0.4,0.4,left,0,['left'],[0.5159269999712706],965.772266600281,966.0160150006413
15,6,15,270,90,0.2,0.9,right,0,['right'],[0.5706034991890192],967.070071099326,967.3155150003731
16,6,16,270,90,0.4,0.5,right,0,[],[],968.375487299636,968.6160432994366
17,6,17,270,270,0.5,0.4,no_target,0,[],[],969.6732288002968,969.916093500331
18,6,18,90,270,0.2,0.9,left,0,['left'],[0.7087114993482828],970.967944599688,971.216266900301
19,6,19,270,270,0.2,0.9,no_target,0,[],[],972.270247200504,972.5160026997328
20,6,20,270,270,0.2,0.9,no_target,0,['right'],[0.7638833988457918],973.5730125997216,973.8160245995969
21,6,21,270,270,0.4,0.4,no_target,0,[],[],974.8723735995591,975.1156146004796
22,6,22,270,270,0.4,0.4,no_target,0,[],[],976.1743759997189,976.4160434994847
23,6,23,270,90,0.5,0.5,right,0,['right'],[0.9553035013377666],977.4692889992148,977.7155069001019
24,6,24,270,90,0.5,0.4,right,0,['right'],[1.0342720001935959],978.7743091993034,979.0160131994635
25,6,25,270,90,0.5,0.5,right,0,[],[],980.0680890008807,980.3160874005407
26,6,26,270,90,0.5,0.4,right,0,[],[],981.3720861002803,981.6158831007779
27,6,27,270,270,0.5,0.5,no_target,0,[],[],982.6714127995074,982.9160671010613
28,6,28,90,270,0.4,0.5,left,0,[],[],983.972411300987,984.2160662002861
29,6,29,90,270,0.2,0.9,left,0,[],[],985.270144701004,985.5160268992186
30,6,30,270,270,0.5,0.4,no_target,0,[],[],986.5714980009943,986.8158429004252
31,6,31,270,90,0.4,0.5,right,0,[],[],987.8714968003333,988.1153065003455
32,6,32,270,270,0.2,0.9,no_target,0,[],[],989.1699385009706,989.4155391994864
33,6,33,270,90,0.2,0.9,right,0,['right'],[0.4727296009659767],990.4722275007516,990.7163248993456
34,6,34,270,270,0.2,0.9,no_target,0,[],[],991.7691821996123,992.0161399003118
35,6,35,270,90,0.4,0.4,right,0,['right'],[0.5732566993683577],993.0677355993539,993.3157190997154
36,6,36,270,270,0.4,0.4,no_target,0,[],[],994.3684177994728,994.6159984003752
37,6,37,270,270,0.2,0.9,no_target,0,[],[],995.673864999786,995.9160821996629
38,6,38,90,270,0.4,0.5,left,0,[],[],996.9714081007987,997.2154684998095
39,6,39,270,270,0.2,0.9,no_target,0,[],[],998.2730931006372,998.5160073004663
40,6,40,270,270,0.2,0.9,no_target,0,[],[],999.5724951010197,999.8159426003695
41,6,41,270,270,0.2,0.9,no_target,0,[],[],1000.8712571002543,1001.1161614004523
42,6,42,270,270,0.2,0.9,no_target,0,[],[],1002.1707362998277,1002.4154519010335
43,6,43,270,90,0.4,0.4,right,0,[],[],1003.4715970996767,1003.7159957010299
44,6,44,270,270,0.4,0.5,no_target,0,[],[],1004.7724444009364,1005.0158788003027
45,6,45,270,270,0.4,0.4,no_target,0,[],[],1006.0716041009873,1006.3160200994462
46,6,46,90,270,0.2,0.9,left,0,['left'],[0.7607682012021542],1007.3718292992562,1007.6158173996955
47,6,47,270,270,0.5,0.5,no_target,0,[],[],1008.6713063996285,1008.9158043004572
48,6,48,270,270,0.5,0.4,no_target,0,[],[],1009.9687750004232,1010.2158963009715
49,6,49,270,270,0.4,0.4,no_target,0,[],[],1011.274918699637,1011.5153551995754
50,6,50,90,270,0.2,0.9,left,0,['left'],[0.5648583006113768],1012.5719681996852,1012.8159996997565
51,6,51,270,270,0.4,0.5,no_target,0,[],[],1013.8712051007897,1014.1154152993113
52,6,52,270,90,0.4,0.5,right,0,['right'],[0.6205454003065825],1015.1722536999732,1015.4155333004892
53,6,53,90,270,0.5,0.5,left,0,[],[],1016.4732514992356,1016.7160733994097
54,6,54,90,270,0.2,0.9,left,0,['left'],[0.8937520999461412],1017.7724818009883,1018.0156867001206
55,6,55,270,270,0.2,0.9,no_target,0,[],[],1019.0716904010624,1019.3160193003714
56,6,56,270,90,0.2,0.9,right,0,['right'],[0.461353100836277],1020.3720130007714,1020.6158866006881
57,6,57,270,90,0.2,0.9,right,0,['right'],[0.8167842999100685],1021.6722231004387,1021.9160326998681
58,6,58,270,90,0.2,0.9,right,0,[],[],1022.9720968008041,1023.2160621006042
59,6,59,270,270,0.2,0.9,no_target,0,[],[],1024.2708317004144,1024.5159514006227
60,6,60,90,270,0.4,0.5,left,0,[],[],1025.5718259997666,1025.8161098007113
61,6,61,270,90,0.5,0.4,right,0,['right'],[0.6981876995414495],1026.8705593999475,1027.1154664997011
62,6,62,270,90,0.4,0.5,right,0,['right'],[0.6280272994190454],1028.1726818997413,1028.415624000132
63,6,63,270,90,0.2,0.9,right,0,['right'],[0.8364278003573418],1029.4680061992258,1029.7160944007337
64,6,64,270,90,0.5,0.5,right,0,['right'],[0.7898282986134291],1030.7705952003598,1031.016023600474
65,6,65,90,270,0.5,0.4,left,0,['left'],[0.2766030989587307],1032.0680541004986,1032.3154004998505
66,6,66,270,270,0.5,0.5,no_target,0,[],[],1033.3725151009858,1033.6154562998563
67,6,67,270,90,0.2,0.9,right,0,['right'],[0.5691430997103453],1034.6717754993588,1034.9159842003137
68,6,68,90,270,0.4,0.5,left,0,[],[],1035.9729171004146,1036.215698800981
69,6,69,90,270,0.2,0.9,left,0,['left'],[0.5564568005502224],1037.2726686000824,1037.515990300104
70,6,70,270,270,0.4,0.5,no_target,0,[],[],1038.5722129009664,1038.8154201004654
71,6,71,90,270,0.2,0.9,left,0,[],[],1039.8731616996229,1040.1160057000816
72,6,72,270,270,0.2,0.9,no_target,0,[],[],1041.173463800922,1041.4159979000688
73,6,73,270,90,0.2,0.9,right,0,['right'],[0.5613666996359825],1042.4714906997979,1042.715599199757
74,6,74,270,90,0.4,0.5,right,0,['right'],[0.556037399917841],1043.772973600775,1044.0160179007798
75,6,75,270,90,0.4,0.4,right,0,['right'],[0.5275984015315771],1045.0730494000018,1045.316086800769
76,6,76,90,270,0.2,0.9,left,0,['left'],[0.8883553985506296],1046.3737874999642,1046.6159112006426
77,6,77,90,270,0.4,0.4,left,0,['left'],[0.6910357996821404],1047.671397300437,1047.9154442995787
78,6,78,90,270,0.4,0.4,left,0,[],[],1048.9725835006684,1049.2154131010175
79,6,79,270,270,0.5,0.4,no_target,0,['right'],[0.9950142987072468],1050.2696467004716,1050.515532599762
80,6,80,90,270,0.4,0.4,left,0,['left'],[0.5773229990154505],1051.572325900197,1051.815664799884
81,6,81,270,90,0.2,0.9,right,0,['right'],[0.4800531007349491],1052.8725255001336,1053.1152107007802
82,6,82,270,90,0.2,0.9,right,0,[],[],1054.1722371000797,1054.4159507993609
83,6,83,270,90,0.5,0.4,right,0,['left'],[0.4766612984240055],1055.472107399255,1055.7153599001467
84,6,84,90,270,0.5,0.4,left,0,['left'],[0.7932275012135506],1056.7720101010054,1057.0159383993596
85,6,85,90,270,0.2,0.9,left,0,['right'],[0.44142429903149605],1058.0716664995998,1058.3159417007118
86,6,86,90,270,0.2,0.9,left,0,[],[],1059.3716774005443,1059.6154052000493
87,6,87,270,90,0.2,0.9,right,0,['right'],[0.45303599908947945],1060.6676177997142,1060.9156480003148
88,6,88,270,270,0.2,0.9,no_target,0,[],[],1061.9697259999812,1062.215524500236
89,6,89,90,270,0.2,0.9,left,0,[],[],1063.2715058010072,1063.5155768003315
90,6,90,90,270,0.4,0.4,left,0,[],[],1064.5735976994038,1064.8152668010443
91,6,91,90,270,0.2,0.9,left,0,['left'],[0.6607140004634857],1065.873463600874,1066.1159952003509
92,6,92,90,270,0.5,0.4,left,0,['left'],[0.9589865002781153],1067.1720205005258,1067.4155343007296
93,6,93,270,90,0.5,0.5,right,0,['right'],[0.6282080989331007],1068.4684840999544,1068.7158940006047
94,6,94,270,90,0.5,0.4,right,0,[],[],1069.7718522008508,1070.015532899648
95,6,95,90,270,0.5,0.5,left,0,['left'],[0.59678940102458],1071.072648299858,1071.3156083002687
96,6,96,270,90,0.5,0.5,right,0,['right'],[0.5958726983517408],1072.37286250107,1072.6159977000207
97,6,97,90,270,0.4,0.5,left,0,['left'],[0.5361492000520229],1073.6716724000871,1073.9154474008828
98,6,98,270,270,0.4,0.5,no_target,0,[],[],1074.9700883999467,1075.2156118005514
0,7,0,90,270,0.9,0.2,left,1,['left'],[0.7612359002232552],1083.4839319009334,1083.7326468992978
1,7,1,270,270,0.9,0.2,no_target,1,[],[],1084.7895350009203,1085.0327394995838
2,7,2,90,270,0.5,0.5,left,1,['left'],[0.5727200992405415],1086.091139599681,1086.33262969926
3,7,3,270,270,0.9,0.2,no_target,1,[],[],1087.3884682003409,1087.6326349005103
4,7,4,270,270,0.9,0.2,no_target,1,[],[],1088.6904259007424,1088.9323086999357
5,7,5,90,270,0.5,0.5,left,1,['left'],[0.5658670999109745],1089.988875599578,1090.2323706001043
6,7,6,270,90,0.9,0.2,right,1,['right'],[0.447986900806427],1091.2888555005193,1091.5321951005608
7,7,7,270,270,0.4,0.4,no_target,1,[],[],1092.5846216008067,1092.832758801058
8,7,8,270,270,0.9,0.2,no_target,1,[],[],1093.8894852995872,1094.1327334996313
9,7,9,90,270,0.9,0.2,left,1,['left'],[0.5637769009917974],1095.1864801999182,1095.432743800804
10,7,10,270,90,0.5,0.5,right,1,['right'],[0.6059758011251688],1096.4908371008933,1096.7326485998929
11,7,11,270,270,0.4,0.4,no_target,1,['left'],[0.5025731008499861],1097.789038900286,1098.0325499996543
12,7,12,270,90,0.4,0.4,right,1,['right'],[0.5118589010089636],1099.0886847004294,1099.3325350992382
13,7,13,90,270,0.4,0.4,left,1,['left'],[0.867561100050807],1100.3888454008847,1100.6324317008257
14,7,14,90,270,0.9,0.2,left,1,[],[],1101.6893330998719,1101.9321317002177
15,7,15,90,270,0.9,0.2,left,1,[],[],1102.9871201999485,1103.232188699767
16,7,16,90,270,0.4,0.4,left,1,['left'],[0.5799563005566597],1104.2850998993963,1104.5321709997952
17,7,17,90,270,0.9,0.2,left,1,['left'],[0.7075460013002157],1105.5891378000379,1105.8322372995317
18,7,18,270,90,0.9,0.2,right,1,['right'],[0.7831067014485598],1106.8895787000656,1107.1320616006851
19,7,19,90,270,0.9,0.2,left,1,[],[],1108.1892721001059,1108.4320922009647
20,7,20,90,270,0.9,0.2,left,1,['left'],[0.5714266989380121],1109.4872535001487,1109.7321381997317
21,7,21,90,270,0.4,0.5,left,1,['left'],[0.8013308010995388],1110.788946300745,1111.032424500212
22,7,22,270,90,0.4,0.5,right,1,['right'],[0.5200076997280121],1112.0884699001908,1112.3322493005544
23,7,23,90,270,0.9,0.2,left,1,['left'],[0.603634798899293],1113.387038199231,1113.6320923995227
24,7,24,270,270,0.9,0.2,no_target,1,[],[],1114.688547000289,1114.932657700032
25,7,25,270,90,0.5,0.5,right,1,['right'],[0.5247344002127647],1115.988209400326,1116.231991700828
26,7,26,90,270,0.9,0.2,left,1,['left'],[0.5178258996456861],1117.2893972992897,1117.5326607003808
27,7,27,90,270,0.5,0.5,left,1,['left'],[0.4873240999877453],1118.5902839004993,1118.832306900993
28,7,28,270,270,0.5,0.4,no_target,1,[],[],1119.8881647009403,1120.1321433000267
29,7,29,270,90,0.5,0.4,right,1,['right'],[0.7231742013245821],1121.1895164009184,1121.4320020005107
30,7,30,270,90,0.9,0.2,right,1,[],[],1122.4865042995661,1122.7326359003782
31,7,31,270,90,0.4,0.5,right,1,[],[],1123.7895197998732,1124.0326224993914
32,7,32,270,90,0.4,0.5,right,1,['right'],[0.9920068997889757],1125.0889379009604,1125.3326497003436
33,7,33,270,90,0.9,0.2,right,1,['right'],[0.8602843005210161],1126.3886744007468,1126.6327304001898
34,7,34,90,270,0.4,0.5,left,1,['left'],[0.5622854009270668],1127.6882978007197,1127.9321417994797
35,7,35,270,270,0.4,0.5,no_target,1,['left'],[0.6165727004408836],1128.9878691006452,1129.232333900407
36,7,36,270,270,0.9,0.2,no_target,1,[],[],1130.2900197003037,1130.5323745999485
37,7,37,90,270,0.5,0.5,left,1,['left'],[0.9090768005698919],1131.5887071006,1131.832382099703
38,7,38,90,270,0.5,0.4,left,1,['left'],[0.5399291999638081],1132.8876968994737,1133.132303500548
39,7,39,90,270,0.9,0.2,left,1,['left'],[0.5931052006781101],1134.1854189001024,1134.4326472003013
40,7,40,90,270,0.5,0.4,left,1,['left'],[0.5194520000368357],1135.48705060035,1135.7327383998781
41,7,41,270,90,0.4,0.5,right,1,['right'],[0.5865850001573563],1136.790082199499,1137.0322802998126
42,7,42,270,270,0.5,0.4,no_target,1,[],[],1138.087206799537,1138.3325817994773
43,7,43,270,90,0.4,0.4,right,1,['right'],[0.49078840017318726],1139.3896185010672,1139.6327132005244
44,7,44,90,270,0.9,0.2,left,1,['left'],[0.5938311014324427],1140.6906305998564,1140.932635501027
45,7,45,270,270,0.4,0.5,no_target,1,[],[],1141.987453499809,1142.2322940994054
46,7,46,270,270,0.4,0.4,no_target,1,[],[],1143.288054799661,1143.532451801002
47,7,47,270,270,0.9,0.2,no_target,1,[],[],1144.587593300268,1144.8323641009629
48,7,48,90,270,0.5,0.4,left,1,['left'],[0.5262422002851963],1145.8864005003124,1146.1325084995478
49,7,49,270,270,0.5,0.4,no_target,1,[],[],1147.189156299457,1147.432749999687
50,7,50,270,270,0.9,0.2,no_target,1,[],[],1148.4871188998222,1148.7326309997588
51,7,51,90,270,0.4,0.5,left,1,['left'],[0.5706119015812874],1149.7880032993853,1150.0324774999171
52,7,52,270,270,0.4,0.5,no_target,1,[],[],1151.0893859006464,1151.332452300936
53,7,53,270,270,0.5,0.4,no_target,1,[],[],1152.3845063000917,1152.6324924007058
54,7,54,270,270,0.9,0.2,no_target,1,[],[],1153.689141800627,1153.9326064996421
55,7,55,270,270,0.5,0.5,no_target,1,[],[],1154.988869599998,1155.23204110004
56,7,56,270,90,0.5,0.5,right,1,['right'],[0.5755567997694016],1156.2896509002894,1156.5325849000365
57,7,57,90,270,0.5,0.4,left,1,['left'],[0.5327439997345209],1157.5863828994334,1157.8325971998274
58,7,58,270,270,0.9,0.2,no_target,1,[],[],1158.8880241010338,1159.132166000083
59,7,59,270,90,0.5,0.4,right,1,['right'],[0.5410368982702494],1160.1877404004335,1160.43254170008
60,7,60,90,270,0.9,0.2,left,1,['left'],[0.566320400685072],1161.486590500921,1161.7324183993042
61,7,61,270,90,0.9,0.2,right,1,[],[],1162.7896584998816,1163.0322878994048
62,7,62,270,270,0.5,0.5,no_target,1,[],[],1164.0881229005754,1164.3322238996625
63,7,63,270,270,0.9,0.2,no_target,1,['right'],[0.547825999557972],1165.3890802003443,1165.6326147001237
64,7,64,270,90,0.4,0.5,right,1,['right'],[0.7637764997780323],1166.6851873006672,1166.9325804002583
65,7,65,90,270,0.4,0.4,left,1,['left'],[0.5464995000511408],1167.9875301998109,1168.2321793995798
66,7,66,270,270,0.4,0.5,no_target,1,[],[],1169.287716800347,1169.531939599663
67,7,67,270,90,0.9,0.2,right,1,['right'],[0.4115108009427786],1170.5893331002444,1170.832325199619
68,7,68,270,270,0.5,0.5,no_target,1,[],[],1171.8889699000865,1172.1326634008437
69,7,69,270,90,0.4,0.4,right,1,['right'],[0.556937500834465],1173.1880533993244,1173.4323948007077
70,7,70,270,90,0.5,0.5,right,1,[],[],1174.4852198008448,1174.7321173995733
71,7,71,270,90,0.4,0.4,right,1,['right'],[0.5965142007917166],1175.7882311996073,1176.032601799816
72,7,72,270,270,0.9,0.2,no_target,1,[],[],1177.0927361994982,1177.3319646995515
73,7,73,270,270,0.4,0.5,no_target,1,[],[],1178.3884712997824,1178.632183400914
74,7,74,90,270,0.4,0.5,left,1,[],[],1179.689336599782,1179.932667799294
75,7,75,270,90,0.5,0.5,right,1,['right'],[0.4739625006914139],1180.9906907007098,1181.232785699889
76,7,76,90,270,0.4,0.4,left,1,['left'],[0.42887960001826286],1182.288991400972,1182.532012199983
77,7,77,270,270,0.4,0.4,no_target,1,[],[],1183.5866109002382,1183.8325814008713
78,7,78,90,270,0.5,0.5,left,1,['left'],[0.8637946005910635],1184.8896690998226,1185.132663000375
79,7,79,270,270,0.5,0.4,no_target,1,[],[],1186.1868015993387,1186.432038500905
80,7,80,270,270,0.4,0.4,no_target,1,[],[],1187.4897680003196,1187.7326567005366
81,7,81,270,90,0.4,0.4,right,1,['right'],[0.5517691988497972],1188.784974599257,1189.032648799941
82,7,82,270,90,0.9,0.2,right,1,['right'],[1.1014421992003918],1190.0911309998482,1190.3328153993934
83,7,83,270,90,0.9,0.2,right,1,[],[],1191.3879189994186,1191.6326662003994
84,7,84,270,270,0.5,0.5,no_target,1,[],[],1192.690004400909,1192.9325433000922
85,7,85,270,90,0.9,0.2,right,1,['right'],[0.5239593014121056],1193.9886904004961,1194.2325545009226
86,7,86,270,90,0.9,0.2,right,1,[],[],1195.2910594996065,1195.5321862008423
87,7,87,270,90,0.5,0.4,right,1,['right'],[0.7788484990596771],1196.589785899967,1196.8318150006235
88,7,88,90,270,0.9,0.2,left,1,['left'],[0.6628774013370275],1197.8884523008019,1198.1325506009161
89,7,89,270,90,0.9,0.2,right,1,['right'],[0.6114726010710001],1199.189085200429,1199.432728100568
90,7,90,270,90,0.5,0.4,right,1,['right'],[0.768087400123477],1200.4889131002128,1200.7326037008315
91,7,91,90,270,0.4,0.5,left,1,[],[],1201.7899610996246,1202.032764799893
92,7,92,90,270,0.5,0.4,left,1,[],[],1203.0851681008935,1203.3325033001602
93,7,93,90,270,0.4,0.4,left,1,['left'],[0.5603822004050016],1204.388917800039,1204.632658900693
94,7,94,270,90,0.5,0.4,right,1,[],[],1205.6898285001516,1205.932617900893
95,7,95,270,270,0.9,0.2,no_target,1,[],[],1206.9874620996416,1207.2319773007184
96,7,96,270,90,0.9,0.2,right,1,['right'],[0.7400976996868849],1208.2847572006285,1208.5319972001016
97,7,97,270,270,0.5,0.5,no_target,1,[],[],1209.5857087001204,1209.8326107002795
98,7,98,270,90,0.9,0.2,right,1,['right'],[0.5270834993571043],1210.889886699617,1211.1319212000817
